subject_id,task_part,block_condition,block_order,task_block,trial_index,stimulus,cat_type,mean_cat_reward,approach_reward,key_press,rt,points,stimulus_repetition,correct_response,correct_response_made
3768,learning,2,1,animals,73,images/horse7.png,neutral,0,2,1,1148,2,1,1,1
3768,learning,2,1,animals,75,images/cow5.png,bad,-3,-4,0,347,0,1,0,1
3768,learning,2,1,animals,77,images/cow8.png,bad,-3,-2,1,618,-2,1,0,0
3768,learning,2,1,animals,79,images/horse7.png,neutral,0,2,1,306,2,2,1,1
3768,learning,2,1,animals,81,images/goat6.png,good,5,8,0,1521,0,1,1,0
3768,learning,2,1,animals,83,images/cow5.png,bad,-3,-4,0,896,0,2,0,1
3768,learning,2,1,animals,85,images/goat5.png,good,5,-5,1,766,-5,1,0,0
3768,learning,2,1,animals,87,images/goat1.png,good,5,-7,1,1102,-7,1,0,0
3768,learning,2,1,animals,89,images/cow3.png,bad,-3,5,1,453,5,1,1,1
3768,learning,2,1,animals,91,images/cow3.png,bad,-3,5,0,1166,0,2,1,0
3768,learning,2,1,animals,93,images/horse3.png,neutral,0,-8,1,864,-8,1,0,0
3768,learning,2,1,animals,95,images/goat1.png,good,5,-7,0,145,0,2,0,1
3768,learning,2,1,animals,97,images/goat6.png,good,5,8,1,1066,8,2,1,1
3768,learning,2,1,animals,99,images/horse1.png,neutral,0,-3,0,1349,0,1,0,1
3768,learning,2,1,animals,101,images/horse1.png,neutral,0,-3,0,1574,0,2,0,1
3768,learning,2,1,animals,103,images/goat1.png,good,5,-7,0,1648,0,3,0,1
3768,learning,2,1,animals,105,images/horse7.png,neutral,0,2,1,1001,2,3,1,1
3768,learning,2,1,animals,107,images/horse4.png,neutral,0,6,0,1355,0,1,1,0
3768,learning,2,1,animals,109,images/cow8.png,bad,-3,-2,0,1133,0,2,0,1
3768,learning,2,1,animals,111,images/goat6.png,good,5,8,1,943,8,3,1,1
3768,learning,2,1,animals,113,images/cow1.png,bad,-3,-9,0,1121,0,1,0,1
3768,learning,2,1,animals,115,images/goat1.png,good,5,-7,0,1026,0,4,0,1
3768,learning,2,1,animals,117,images/horse1.png,neutral,0,-3,0,939,0,3,0,1
3768,learning,2,1,animals,119,images/cow3.png,bad,-3,5,0,884,0,3,1,0
3768,learning,2,1,animals,121,images/horse3.png,neutral,0,-8,0,981,0,2,0,1
3768,learning,2,1,animals,123,images/goat1.png,good,5,-7,0,831,0,5,0,1
3768,learning,2,1,animals,125,images/goat6.png,good,5,8,1,703,8,4,1,1
3768,learning,2,1,animals,127,images/goat6.png,good,5,8,1,848,8,5,1,1
3768,learning,2,1,animals,129,images/cow5.png,bad,-3,-4,0,923,0,3,0,1
3768,learning,2,1,animals,131,images/horse1.png,neutral,0,-3,0,716,0,4,0,1
3768,learning,2,1,animals,133,images/cow3.png,bad,-3,5,0,798,0,4,1,0
3768,learning,2,1,animals,135,images/goat8.png,good,5,3,0,1185,0,1,1,0
3768,learning,2,1,animals,137,images/goat5.png,good,5,-5,0,1210,0,2,0,1
3768,learning,2,1,animals,139,images/cow5.png,bad,-3,-4,0,603,0,4,0,1
3768,learning,2,1,animals,141,images/cow3.png,bad,-3,5,0,674,0,5,1,0
3768,learning,2,1,animals,143,images/horse7.png,neutral,0,2,1,988,2,4,1,1
3768,learning,2,1,animals,145,images/horse7.png,neutral,0,2,1,718,2,5,1,1
3768,learning,2,1,animals,147,images/horse7.png,neutral,0,2,1,775,2,6,1,1
3768,learning,2,1,animals,149,images/horse3.png,neutral,0,-8,0,745,0,3,0,1
3768,learning,2,1,animals,151,images/cow5.png,bad,-3,-4,0,770,0,5,0,1
3768,learning,2,1,animals,153,images/goat1.png,good,5,-7,0,1553,0,6,0,1
3768,learning,2,1,animals,155,images/cow3.png,bad,-3,5,1,1418,5,6,1,1
3768,learning,2,1,animals,157,images/cow8.png,bad,-3,-2,0,1053,0,3,0,1
3768,learning,2,1,animals,159,images/horse1.png,neutral,0,-3,0,934,0,5,0,1
3768,learning,2,1,animals,161,images/goat6.png,good,5,8,1,751,8,6,1,1
3768,learning,2,1,animals,163,images/cow4.png,bad,-3,7,0,1094,0,1,1,0
3768,learning,2,1,animals,165,images/goat4.png,good,5,1,1,1797,1,1,1,1
3768,learning,2,1,animals,167,images/horse1.png,neutral,0,-3,0,588,0,6,0,1
3768,learning,2,1,animals,169,images/horse2.png,neutral,0,4,0,955,0,1,1,0
3768,learning,2,1,animals,171,images/cow5.png,bad,-3,-4,0,629,0,6,0,1
3768,learning,2,1,animals,173,images/goat5.png,good,5,-5,0,693,0,3,0,1
3768,learning,1,2,plants,190,images/cactus4.png,bad,-3,-4,1,958,-4,1,0,0
3768,learning,1,2,plants,192,images/cactus6.png,bad,-3,-3,0,653,0,1,0,1
3768,learning,1,2,plants,194,images/flower4.png,good,6,8,0,612,0,1,1,0
3768,learning,1,2,plants,196,images/cactus8.png,bad,-3,-3,0,876,0,1,0,1
3768,learning,1,2,plants,198,images/tree3.png,neutral,0,[1],0,1114,0,1,0,1
3768,learning,1,2,plants,200,images/flower4.png,good,6,8,1,793,8,2,1,1
3768,learning,1,2,plants,202,images/cactus6.png,bad,-3,-5,0,1056,0,2,0,1
3768,learning,1,2,plants,204,images/cactus4.png,bad,-3,-2,0,631,0,2,0,1
3768,learning,1,2,plants,206,images/flower2.png,good,6,5,1,766,5,1,1,1
3768,learning,1,2,plants,208,images/flower8.png,good,6,5,1,741,5,1,1,1
3768,learning,1,2,plants,210,images/tree6.png,neutral,0,-1,1,1068,-1,1,0,0
3768,learning,1,2,plants,212,images/flower2.png,good,6,6,1,826,6,2,1,1
3768,learning,1,2,plants,214,images/tree6.png,neutral,0,[-1],0,1122,0,2,0,1
3768,learning,1,2,plants,216,images/tree5.png,neutral,0,[-1],1,1280,-1,1,0,0
3768,learning,1,2,plants,218,images/tree3.png,neutral,0,-1,1,823,-1,2,0,0
3768,learning,1,2,plants,220,images/tree5.png,neutral,0,-1,0,846,0,2,0,1
3768,learning,1,2,plants,222,images/flower6.png,good,6,8,1,742,8,1,1,1
3768,learning,1,2,plants,224,images/cactus4.png,bad,-3,-5,0,707,0,3,0,1
3768,learning,1,2,plants,226,images/cactus4.png,bad,-3,-1,0,1513,0,4,0,1
3768,learning,1,2,plants,228,images/tree3.png,neutral,0,-3,0,1080,0,3,0,1
3768,learning,1,2,plants,230,images/flower8.png,good,6,5,1,791,5,2,1,1
3768,learning,1,2,plants,232,images/flower2.png,good,6,3,1,718,3,3,1,1
3768,learning,1,2,plants,234,images/tree1.png,neutral,0,2,0,1286,0,1,0,1
3768,learning,1,2,plants,236,images/tree3.png,neutral,0,-1,0,780,0,4,0,1
3768,learning,1,2,plants,238,images/flower4.png,good,6,8,1,674,8,3,1,1
3768,learning,1,2,plants,240,images/flower4.png,good,6,4,1,530,4,4,1,1
3768,learning,1,2,plants,242,images/tree5.png,neutral,0,[-1],0,840,0,3,0,1
3768,learning,1,2,plants,244,images/cactus5.png,bad,-3,-1,0,959,0,1,0,1
3768,learning,1,2,plants,246,images/tree6.png,neutral,0,[1],0,1398,0,3,0,1
3768,learning,1,2,plants,248,images/tree6.png,neutral,0,1,1,951,1,4,0,0
3768,learning,1,2,plants,250,images/cactus6.png,bad,-3,-3,0,2448,0,3,0,1
3768,learning,1,2,plants,252,images/cactus6.png,bad,-3,-1,0,1113,0,4,0,1
3768,learning,1,2,plants,254,images/flower2.png,good,6,4,1,571,4,4,1,1
3768,learning,1,2,plants,256,images/tree6.png,neutral,0,-2,0,770,0,5,0,1
3768,learning,1,2,plants,258,images/flower2.png,good,6,5,1,1040,5,5,1,1
3768,learning,1,2,plants,260,images/cactus8.png,bad,-3,-2,0,1333,0,2,0,1
3768,learning,1,2,plants,262,images/tree6.png,neutral,0,1,0,685,0,6,0,1
3768,learning,1,2,plants,264,images/tree3.png,neutral,0,1,0,1141,0,5,0,1
3768,learning,1,2,plants,266,images/tree3.png,neutral,0,1,1,1123,1,6,0,0
3768,learning,1,2,plants,268,images/cactus6.png,bad,-3,-1,0,649,0,5,0,1
3768,learning,1,2,plants,270,images/cactus4.png,bad,-3,-5,0,1106,0,5,0,1
3768,learning,1,2,plants,272,images/cactus1.png,bad,-3,-2,0,887,0,1,0,1
3768,learning,1,2,plants,274,images/cactus6.png,bad,-3,-3,0,942,0,6,0,1
3768,learning,1,2,plants,276,images/cactus8.png,bad,-3,-1,0,622,0,3,0,1
3768,learning,1,2,plants,278,images/cactus4.png,bad,-3,-3,0,740,0,6,0,1
3768,learning,1,2,plants,280,images/flower2.png,good,6,8,1,756,8,6,1,1
3768,learning,1,2,plants,282,images/flower4.png,good,6,7,1,563,7,5,1,1
3768,learning,1,2,plants,284,images/flower4.png,good,6,5,1,802,5,6,1,1
3768,learning,1,2,plants,286,images/flower1.png,good,6,5,1,841,5,1,1,1
3768,learning,1,2,plants,288,images/tree7.png,neutral,0,[-1],-,1104,-5,1,0,0
3768,learning,1,2,plants,290,images/flower8.png,good,6,5,1,1494,5,3,1,1
3768,learning,2,3,furniture,307,images/table2.png,good,6,6,1,1704,6,1,1,1
3768,learning,2,3,furniture,309,images/table5.png,good,6,4,0,607,0,1,1,0
3768,learning,2,3,furniture,311,images/bed7.png,bad,-3,7,0,1000,0,1,1,0
3768,learning,2,3,furniture,313,images/table5.png,good,6,4,1,882,4,2,1,1
3768,learning,2,3,furniture,315,images/bed6.png,bad,-3,3,0,1332,0,1,1,0
3768,learning,2,3,furniture,317,images/bed1.png,bad,-3,-7,0,1011,0,1,0,1
3768,learning,2,3,furniture,319,images/bed7.png,bad,-3,7,1,963,7,2,1,1
3768,learning,2,3,furniture,321,images/table6.png,good,6,-9,1,750,-9,1,0,0
3768,learning,2,3,furniture,323,images/bed6.png,bad,-3,3,0,863,0,2,1,0
3768,learning,2,3,furniture,325,images/sofa2.png,neutral,0,5,1,1768,5,1,1,1
3768,learning,2,3,furniture,327,images/sofa2.png,neutral,0,5,1,641,5,2,1,1
3768,learning,2,3,furniture,329,images/sofa1.png,neutral,0,2,1,725,2,1,1,1
3768,learning,2,3,furniture,331,images/sofa8.png,neutral,0,-8,1,1726,-8,1,0,0
3768,learning,2,3,furniture,333,images/table6.png,good,6,-9,0,1206,0,2,0,1
3768,learning,2,3,furniture,335,images/sofa8.png,neutral,0,-8,0,1030,0,2,0,1
3768,learning,2,3,furniture,337,images/bed7.png,bad,-3,7,1,935,7,3,1,1
3768,learning,2,3,furniture,339,images/sofa2.png,neutral,0,5,1,943,5,3,1,1
3768,learning,2,3,furniture,341,images/sofa8.png,neutral,0,-8,1,794,-8,3,0,0
3768,learning,2,3,furniture,343,images/table2.png,good,6,6,9,1196,-5,2,1,0
3768,learning,2,3,furniture,345,images/table6.png,good,6,-9,0,2372,0,3,0,1
3768,learning,2,3,furniture,347,images/bed7.png,bad,-3,7,1,1111,7,4,1,1
3768,learning,2,3,furniture,349,images/bed7.png,bad,-3,7,1,822,7,5,1,1
3768,learning,2,3,furniture,351,images/sofa1.png,neutral,0,2,0,744,0,2,1,0
3768,learning,2,3,furniture,353,images/table5.png,good,6,4,1,730,4,3,1,1
3768,learning,2,3,furniture,355,images/bed6.png,bad,-3,3,1,796,3,3,1,1
3768,learning,2,3,furniture,357,images/sofa1.png,neutral,0,2,1,854,2,3,1,1
3768,learning,2,3,furniture,359,images/sofa2.png,neutral,0,5,1,768,5,4,1,1
3768,learning,2,3,furniture,361,images/sofa2.png,neutral,0,5,1,569,5,5,1,1
3768,learning,2,3,furniture,363,images/table6.png,good,6,-9,0,1418,0,4,0,1
3768,learning,2,3,furniture,365,images/table5.png,good,6,4,1,2011,4,4,1,1
3768,learning,2,3,furniture,367,images/bed6.png,bad,-3,3,1,1469,3,4,1,1
3768,learning,2,3,furniture,369,images/bed1.png,bad,-3,-7,0,1627,0,2,0,1
3768,learning,2,3,furniture,371,images/table6.png,good,6,-9,0,836,0,5,0,1
3768,learning,2,3,furniture,373,images/sofa6.png,neutral,0,9,1,1422,9,1,1,1
3768,learning,2,3,furniture,375,images/sofa2.png,neutral,0,5,1,782,5,6,1,1
3768,learning,2,3,furniture,377,images/bed6.png,bad,-3,3,1,844,3,5,1,1
3768,learning,2,3,furniture,379,images/bed4.png,bad,-3,-2,1,1491,-2,1,0,0
3768,learning,2,3,furniture,381,images/bed7.png,bad,-3,7,1,850,7,6,1,1
3768,learning,2,3,furniture,383,images/table5.png,good,6,4,1,1049,4,5,1,1
3768,learning,2,3,furniture,385,images/sofa8.png,neutral,0,-8,0,1056,0,4,0,1
3768,learning,2,3,furniture,387,images/sofa8.png,neutral,0,-8,0,1256,0,5,0,1
3768,learning,2,3,furniture,389,images/table6.png,good,6,-9,0,879,0,6,0,1
3768,learning,2,3,furniture,391,images/table8.png,good,6,-3,0,2088,0,1,0,1
3768,learning,2,3,furniture,393,images/table5.png,good,6,4,1,800,4,6,1,1
3768,learning,2,3,furniture,395,images/sofa3.png,neutral,0,-5,1,778,-5,1,0,0
3768,learning,2,3,furniture,397,images/table1.png,good,6,-1,0,851,0,1,0,1
3768,learning,2,3,furniture,399,images/table2.png,good,6,6,0,2330,0,3,1,0
3768,learning,2,3,furniture,401,images/sofa8.png,neutral,0,-8,0,1364,0,6,0,1
3768,learning,2,3,furniture,403,images/bed5.png,bad,-3,-4,escape,531,-5,1,0,0
3768,learning,2,3,furniture,405,images/bed1.png,bad,-3,-7,0,741,0,3,0,1
3768,learning,2,3,furniture,407,images/bed6.png,bad,-3,3,escape,2013,-5,6,1,0
3768,learning,1,4,pets,424,images/cat2.png,neutral,0,[1],1,1553,1,1,0,0
3768,learning,1,4,pets,426,images/rabbit2.png,good,6,6,0,799,0,1,1,0
3768,learning,1,4,pets,428,images/rabbit7.png,good,6,3,0,974,0,1,1,0
3768,learning,1,4,pets,430,images/rodent7.png,bad,-4,-3,0,804,0,1,0,1
3768,learning,1,4,pets,432,images/rodent7.png,bad,-4,-3,0,628,0,2,0,1
3768,learning,1,4,pets,434,images/rodent4.png,bad,-4,-4,0,827,0,1,0,1
3768,learning,1,4,pets,436,images/rabbit1.png,good,6,9,1,930,9,1,1,1
3768,learning,1,4,pets,438,images/cat7.png,neutral,0,-2,1,729,-2,1,0,0
3768,learning,1,4,pets,440,images/rabbit7.png,good,6,7,1,976,7,2,1,1
3768,learning,1,4,pets,442,images/cat5.png,neutral,0,[-1],1,774,-1,1,0,0
3768,learning,1,4,pets,444,images/rodent4.png,bad,-4,-6,0,813,0,2,0,1
3768,learning,1,4,pets,446,images/cat2.png,neutral,0,-2,1,884,-2,2,0,0
3768,learning,1,4,pets,448,images/rodent3.png,bad,-4,-5,0,906,0,1,0,1
3768,learning,1,4,pets,450,images/cat7.png,neutral,0,2,0,714,0,2,0,1
3768,learning,1,4,pets,452,images/rabbit1.png,good,6,6,1,769,6,2,1,1
3768,learning,1,4,pets,454,images/rabbit1.png,good,6,8,1,704,8,3,1,1
3768,learning,1,4,pets,456,images/cat2.png,neutral,0,1,1,921,1,3,0,0
3768,learning,1,4,pets,458,images/rodent7.png,bad,-4,-3,0,730,0,3,0,1
3768,learning,1,4,pets,460,images/cat7.png,neutral,0,2,0,842,0,3,0,1
3768,learning,1,4,pets,462,images/rabbit7.png,good,6,5,1,740,5,3,1,1
3768,learning,1,4,pets,464,images/rabbit1.png,good,6,4,1,803,4,4,1,1
3768,learning,1,4,pets,466,images/rodent4.png,bad,-4,-6,0,726,0,3,0,1
3768,learning,1,4,pets,468,images/rabbit8.png,good,6,4,1,773,4,1,1,1
3768,learning,1,4,pets,470,images/rabbit6.png,good,6,8,1,919,8,1,1,1
3768,learning,1,4,pets,472,images/rabbit7.png,good,6,6,1,600,6,4,1,1
3768,learning,1,4,pets,474,images/rodent4.png,bad,-4,-5,0,1048,0,4,0,1
3768,learning,1,4,pets,476,images/rodent7.png,bad,-4,-2,0,1481,0,4,0,1
3768,learning,1,4,pets,478,images/rodent7.png,bad,-4,-2,0,762,0,5,0,1
3768,learning,1,4,pets,480,images/rodent3.png,bad,-4,-3,0,923,0,2,0,1
3768,learning,1,4,pets,482,images/cat7.png,neutral,0,-1,0,843,0,4,0,1
3768,learning,1,4,pets,484,images/rodent7.png,bad,-4,-8,0,644,0,6,0,1
3768,learning,1,4,pets,486,images/cat2.png,neutral,0,3,1,1269,3,4,0,0
3768,learning,1,4,pets,488,images/cat7.png,neutral,0,-4,1,1653,-4,5,0,0
3768,learning,1,4,pets,490,images/cat3.png,neutral,0,[-1],0,2423,0,1,0,1
3768,learning,1,4,pets,492,images/rodent8.png,bad,-4,-2,0,1007,0,1,0,1
3768,learning,1,4,pets,494,images/rodent6.png,bad,-4,-3,0,887,0,1,0,1
3768,learning,1,4,pets,496,images/rabbit7.png,good,6,6,1,1209,6,5,1,1
3768,learning,1,4,pets,498,images/cat2.png,neutral,0,-2,1,810,-2,5,0,0
3768,learning,1,4,pets,500,images/rabbit7.png,good,6,6,1,714,6,6,1,1
3768,learning,1,4,pets,502,images/cat5.png,neutral,0,-2,0,1388,0,2,0,1
3768,learning,1,4,pets,504,images/rabbit2.png,good,6,5,1,1053,5,2,1,1
3768,learning,1,4,pets,506,images/rabbit2.png,good,6,7,NA,54,-5,3,1,NA
3768,learning,1,4,pets,508,images/rabbit1.png,good,6,9,NA,15,-5,5,1,NA
3768,learning,1,4,pets,510,images/rodent4.png,bad,-4,-3,0,1212,0,5,0,1
3768,learning,1,4,pets,512,images/rodent3.png,bad,-4,-5,0,538,0,3,0,1
3768,learning,1,4,pets,514,images/rodent4.png,bad,-4,-4,0,1657,0,6,0,1
3768,learning,1,4,pets,516,images/cat5.png,neutral,0,-1,0,960,0,3,0,1
3768,learning,1,4,pets,518,images/cat2.png,neutral,0,1,1,641,1,6,0,0
3768,learning,1,4,pets,520,images/cat6.png,neutral,0,-1,0,1302,0,1,0,1
3768,learning,1,4,pets,522,images/rabbit1.png,good,6,7,1,845,7,6,1,1
3768,learning,1,4,pets,524,images/cat7.png,neutral,0,-1,0,700,0,6,0,1
3768,learning,1,5,vehicles,541,images/boat2.png,bad,-5,-7,1,2311,-7,1,0,0
3768,learning,1,5,vehicles,543,images/boat8.png,bad,-5,-6,1,2175,-6,1,0,0
3768,learning,1,5,vehicles,545,images/plane7.png,good,5,5,1,1286,5,1,1,1
3768,learning,1,5,vehicles,547,images/boat1.png,bad,-5,-6,0,797,0,1,0,1
3768,learning,1,5,vehicles,549,images/train6.png,neutral,0,[1],1,1157,1,1,0,0
3768,learning,1,5,vehicles,551,images/train4.png,neutral,0,2,1,1075,2,1,0,0
3768,learning,1,5,vehicles,553,images/plane4.png,good,5,5,1,1189,5,1,1,1
3768,learning,1,5,vehicles,555,images/train4.png,neutral,0,1,1,780,1,2,0,0
3768,learning,1,5,vehicles,557,images/train1.png,neutral,0,[1],0,1221,0,1,0,1
3768,learning,1,5,vehicles,559,images/boat2.png,bad,-5,-5,0,1406,0,2,0,1
3768,learning,1,5,vehicles,561,images/plane4.png,good,5,7,1,687,7,2,1,1
3768,learning,1,5,vehicles,563,images/boat1.png,bad,-5,-3,0,679,0,2,0,1
3768,learning,1,5,vehicles,565,images/plane2.png,good,5,3,1,871,3,1,1,1
3768,learning,1,5,vehicles,567,images/train6.png,neutral,0,[1],1,736,1,2,0,0
3768,learning,1,5,vehicles,569,images/plane2.png,good,5,8,1,521,8,2,1,1
3768,learning,1,5,vehicles,571,images/boat2.png,bad,-5,-6,0,715,0,3,0,1
3768,learning,1,5,vehicles,573,images/train1.png,neutral,0,[1],0,731,0,2,0,1
3768,learning,1,5,vehicles,575,images/train4.png,neutral,0,-1,1,876,-1,3,0,0
3768,learning,1,5,vehicles,577,images/boat1.png,bad,-5,-5,0,740,0,3,0,1
3768,learning,1,5,vehicles,579,images/boat2.png,bad,-5,-4,0,637,0,4,0,1
3768,learning,1,5,vehicles,581,images/train4.png,neutral,0,2,0,471,0,4,0,1
3768,learning,1,5,vehicles,583,images/plane8.png,good,5,4,1,903,4,1,1,1
3768,learning,1,5,vehicles,585,images/train4.png,neutral,0,-1,1,1096,-1,5,0,0
3768,learning,1,5,vehicles,587,images/train1.png,neutral,0,[-1],0,129,0,3,0,1
3768,learning,1,5,vehicles,589,images/boat8.png,bad,-5,-5,0,1080,0,2,0,1
3768,learning,1,5,vehicles,591,images/boat8.png,bad,-5,-4,0,626,0,3,0,1
3768,learning,1,5,vehicles,593,images/train6.png,neutral,0,2,0,498,0,3,0,1
3768,learning,1,5,vehicles,595,images/plane2.png,good,5,4,1,722,4,3,1,1
3768,learning,1,5,vehicles,597,images/plane7.png,good,5,6,1,651,6,2,1,1
3768,learning,1,5,vehicles,599,images/train6.png,neutral,0,-2,1,1125,-2,4,0,0
3768,learning,1,5,vehicles,601,images/boat2.png,bad,-5,-7,0,573,0,5,0,1
3768,learning,1,5,vehicles,603,images/plane3.png,good,5,4,1,767,4,1,1,1
3768,learning,1,5,vehicles,605,images/plane2.png,good,5,5,1,631,5,4,1,1
3768,learning,1,5,vehicles,607,images/train8.png,neutral,0,2,1,911,2,1,0,0
3768,learning,1,5,vehicles,609,images/plane4.png,good,5,4,1,696,4,3,1,1
3768,learning,1,5,vehicles,611,images/plane2.png,good,5,7,1,1017,7,5,1,1
3768,learning,1,5,vehicles,613,images/boat2.png,bad,-5,-4,0,1417,0,6,0,1
3768,learning,1,5,vehicles,615,images/boat1.png,bad,-5,-6,0,1065,0,4,0,1
3768,learning,1,5,vehicles,617,images/boat7.png,bad,-5,-3,0,963,0,1,0,1
3768,learning,1,5,vehicles,619,images/boat1.png,bad,-5,-6,0,1268,0,5,0,1
3768,learning,1,5,vehicles,621,images/train3.png,neutral,0,-2,1,1292,-2,1,0,0
3768,learning,1,5,vehicles,623,images/plane4.png,good,5,7,1,1806,7,4,1,1
3768,learning,1,5,vehicles,625,images/train4.png,neutral,0,-1,1,981,-1,6,0,0
3768,learning,1,5,vehicles,627,images/plane4.png,good,5,5,1,1253,5,5,1,1
3768,learning,1,5,vehicles,629,images/boat1.png,bad,-5,-3,0,1013,0,6,0,1
3768,learning,1,5,vehicles,631,images/boat6.png,bad,-5,-7,0,1542,0,1,0,1
3768,learning,1,5,vehicles,633,images/plane4.png,good,5,5,1,1828,5,6,1,1
3768,learning,1,5,vehicles,635,images/plane7.png,good,5,8,1,914,8,3,1,1
3768,learning,1,5,vehicles,637,images/plane2.png,good,5,5,1,1022,5,6,1,1
3768,learning,1,5,vehicles,639,images/train6.png,neutral,0,1,1,407,1,5,0,0
3768,learning,1,5,vehicles,641,images/train6.png,neutral,0,2,1,1152,2,6,0,0
3768,learning,2,6,fruit,658,images/straw1.png,neutral,0,4,NA,NA,-5,1,1,NA
3768,learning,2,6,fruit,660,images/apple7.png,bad,-4,3,NA,NA,-5,1,1,NA
3768,learning,2,6,fruit,662,images/orange2.png,good,5,5,1,625,5,1,1,1
3768,learning,2,6,fruit,664,images/apple1.png,bad,-4,-1,1,922,-1,1,0,0
3768,learning,2,6,fruit,666,images/apple3.png,bad,-4,-9,1,723,-9,1,0,0
3768,learning,2,6,fruit,668,images/straw2.png,neutral,0,-6,1,947,-6,1,0,0
3768,learning,2,6,fruit,670,images/orange8.png,good,5,-5,0,836,0,1,0,1
3768,learning,2,6,fruit,672,images/apple1.png,bad,-4,-1,0,1236,0,2,0,1
3768,learning,2,6,fruit,674,images/orange2.png,good,5,5,1,1284,5,2,1,1
3768,learning,2,6,fruit,676,images/straw2.png,neutral,0,-6,0,754,0,2,0,1
3768,learning,2,6,fruit,678,images/straw5.png,neutral,0,-3,1,763,-3,1,0,0
3768,learning,2,6,fruit,680,images/apple3.png,bad,-4,-9,0,738,0,2,0,1
3768,learning,2,6,fruit,682,images/straw5.png,neutral,0,-3,0,826,0,2,0,1
3768,learning,2,6,fruit,684,images/orange3.png,good,5,6,1,1234,6,1,1,1
3768,learning,2,6,fruit,686,images/orange3.png,good,5,6,1,684,6,2,1,1
3768,learning,2,6,fruit,688,images/straw2.png,neutral,0,-6,0,794,0,3,0,1
3768,learning,2,6,fruit,690,images/apple3.png,bad,-4,-9,0,929,0,3,0,1
3768,learning,2,6,fruit,692,images/straw2.png,neutral,0,-6,0,1066,0,4,0,1
3768,learning,2,6,fruit,694,images/straw1.png,neutral,0,4,0,1090,0,2,1,0
3768,learning,2,6,fruit,696,images/straw5.png,neutral,0,-3,0,779,0,3,0,1
3768,learning,2,6,fruit,698,images/straw1.png,neutral,0,4,1,1100,4,3,1,1
3768,learning,2,6,fruit,700,images/apple1.png,bad,-4,-1,0,762,0,3,0,1
3768,learning,2,6,fruit,702,images/apple7.png,bad,-4,3,0,1489,0,2,1,0
3768,learning,2,6,fruit,704,images/orange3.png,good,5,6,1,719,6,3,1,1
3768,learning,2,6,fruit,706,images/orange3.png,good,5,6,1,622,6,4,1,1
3768,learning,2,6,fruit,708,images/straw5.png,neutral,0,-3,0,959,0,4,0,1
3768,learning,2,6,fruit,710,images/apple1.png,bad,-4,-1,0,654,0,4,0,1
3768,learning,2,6,fruit,712,images/apple3.png,bad,-4,-9,0,702,0,4,0,1
3768,learning,2,6,fruit,714,images/straw6.png,neutral,0,7,0,1422,0,1,1,0
3768,learning,2,6,fruit,716,images/straw2.png,neutral,0,-6,0,742,0,5,0,1
3768,learning,2,6,fruit,718,images/straw2.png,neutral,0,-6,0,679,0,6,0,1
3768,learning,2,6,fruit,720,images/orange8.png,good,5,-5,0,560,0,2,0,1
3768,learning,2,6,fruit,722,images/orange2.png,good,5,5,0,247,0,3,1,0
3768,learning,2,6,fruit,724,images/orange7.png,good,5,1,0,1647,0,1,1,0
3768,learning,2,6,fruit,726,images/apple5.png,bad,-4,9,1,1063,9,1,1,1
3768,learning,2,6,fruit,728,images/orange3.png,good,5,6,1,1127,6,5,1,1
3768,learning,2,6,fruit,730,images/apple3.png,bad,-4,-9,0,871,0,5,0,1
3768,learning,2,6,fruit,732,images/straw5.png,neutral,0,-3,0,823,0,5,0,1
3768,learning,2,6,fruit,734,images/orange2.png,good,5,5,1,1831,5,4,1,1
3768,learning,2,6,fruit,736,images/orange6.png,good,5,-7,1,1694,-7,1,0,0
3768,learning,2,6,fruit,738,images/straw4.png,neutral,0,-2,0,685,0,1,0,1
3768,learning,2,6,fruit,740,images/apple7.png,bad,-4,3,1,1268,3,3,1,1
3768,learning,2,6,fruit,742,images/apple1.png,bad,-4,-1,0,626,0,5,0,1
3768,learning,2,6,fruit,744,images/straw5.png,neutral,0,-3,0,738,0,6,0,1
3768,learning,2,6,fruit,746,images/orange8.png,good,5,-5,1,960,-5,3,0,0
3768,learning,2,6,fruit,748,images/orange2.png,good,5,5,1,792,5,5,1,1
3768,learning,2,6,fruit,750,images/orange2.png,good,5,5,1,1038,5,6,1,1
3768,learning,2,6,fruit,752,images/apple6.png,bad,-4,-4,1,1349,-4,1,0,0
3768,learning,2,6,fruit,754,images/apple3.png,bad,-4,-9,0,1117,0,6,0,1
3768,learning,2,6,fruit,756,images/apple1.png,bad,-4,-1,0,932,0,6,0,1
3768,learning,2,6,fruit,758,images/orange3.png,good,5,6,1,830,6,6,1,1
3770,learning,1,1,plants,73,images/bush6.png,bad,-6,-7,0,1377.9,0,1,0,1
3770,learning,1,1,plants,75,images/cactus4.png,neutral,0,[-1],1,573.6,-1,1,0,0
3770,learning,1,1,plants,77,images/cactus4.png,neutral,0,2,0,1409.7,0,2,0,1
3770,learning,1,1,plants,79,images/bush4.png,bad,-6,-8,1,439.5,-8,1,0,0
3770,learning,1,1,plants,81,images/tree2.png,good,4,3,0,407.6,0,1,1,0
3770,learning,1,1,plants,83,images/cactus1.png,neutral,0,4,1,29,4,1,0,0
3770,learning,1,1,plants,85,images/tree5.png,good,4,6,1,535,6,1,1,1
3770,learning,1,1,plants,87,images/cactus7.png,neutral,0,[-1],1,412.9,-1,1,0,0
3770,learning,1,1,plants,89,images/tree2.png,good,4,3,0,593.2,0,2,1,0
3770,learning,1,1,plants,91,images/tree5.png,good,4,3,1,498.8,3,2,1,1
3770,learning,1,1,plants,93,images/cactus1.png,neutral,0,2,0,930,0,2,0,1
3770,learning,1,1,plants,95,images/tree7.png,good,4,2,1,783.3,2,1,1,1
3770,learning,1,1,plants,97,images/bush5.png,bad,-6,-6,0,518.1,0,1,0,1
3770,learning,1,1,plants,99,images/bush6.png,bad,-6,-9,1,598.3,-9,2,0,0
3770,learning,1,1,plants,101,images/bush4.png,bad,-6,-1,0,416,0,2,0,1
3770,learning,1,1,plants,103,images/bush6.png,bad,-6,-5,0,870.7,0,3,0,1
3770,learning,1,1,plants,105,images/bush6.png,bad,-6,-7,1,601.2,-7,4,0,0
3770,learning,1,1,plants,107,images/cactus7.png,neutral,0,[1],0,840.3,0,2,0,1
3770,learning,1,1,plants,109,images/tree2.png,good,4,4,1,1315.9,4,3,1,1
3770,learning,1,1,plants,111,images/cactus8.png,neutral,0,[-1],0,604.7,0,1,0,1
3770,learning,1,1,plants,113,images/cactus4.png,neutral,0,-2,1,491.6,-2,3,0,0
3770,learning,1,1,plants,115,images/cactus4.png,neutral,0,1,0,1083.5,0,4,0,1
3770,learning,1,1,plants,117,images/bush4.png,bad,-6,-5,0,892.4,0,3,0,1
3770,learning,1,1,plants,119,images/bush4.png,bad,-6,-4,0,506.1,0,4,0,1
3770,learning,1,1,plants,121,images/tree7.png,good,4,1,1,1140.9,1,2,1,1
3770,learning,1,1,plants,123,images/cactus1.png,neutral,0,2,0,979.8,0,3,0,1
3770,learning,1,1,plants,125,images/tree2.png,good,4,4,0,1161.1,0,4,1,0
3770,learning,1,1,plants,127,images/tree5.png,good,4,3,1,674,3,3,1,1
3770,learning,1,1,plants,129,images/cactus4.png,neutral,0,[-1],0,978,0,5,0,1
3770,learning,1,1,plants,131,images/bush4.png,bad,-6,-7,0,1032,0,5,0,1
3770,learning,1,1,plants,133,images/tree2.png,good,4,4,0,596.2,0,5,1,0
3770,learning,1,1,plants,135,images/bush8.png,bad,-6,-6,1,1414.2,-6,1,0,0
3770,learning,1,1,plants,137,images/cactus5.png,neutral,0,-3,0,965.4,0,1,0,1
3770,learning,1,1,plants,139,images/bush6.png,bad,-6,-8,0,593,0,5,0,1
3770,learning,1,1,plants,141,images/tree3.png,good,4,5,1,917.4,5,1,1,1
3770,learning,1,1,plants,143,images/cactus1.png,neutral,0,-2,0,733,0,4,0,1
3770,learning,1,1,plants,145,images/tree5.png,good,4,4,1,791.2,4,4,1,1
3770,learning,1,1,plants,147,images/bush4.png,bad,-6,-8,0,930.4,0,6,0,1
3770,learning,1,1,plants,149,images/tree5.png,good,4,2,1,501.8,2,5,1,1
3770,learning,1,1,plants,151,images/cactus1.png,neutral,0,-2,0,561.1,0,5,0,1
3770,learning,1,1,plants,153,images/tree2.png,good,4,6,1,928.9,6,6,1,1
3770,learning,1,1,plants,155,images/bush6.png,bad,-6,-8,0,713.2,0,6,0,1
3770,learning,1,1,plants,157,images/tree5.png,good,4,5,0,755.5,0,6,1,0
3770,learning,1,1,plants,159,images/bush1.png,bad,-6,-5,0,875.4,0,1,0,1
3770,learning,1,1,plants,161,images/cactus1.png,neutral,0,[-1],0,929.9,0,6,0,1
3770,learning,1,1,plants,163,images/bush5.png,bad,-6,-7,0,965.6,0,2,0,1
3770,learning,1,1,plants,165,images/tree4.png,good,4,1,1,879.2,1,1,1,1
3770,learning,1,1,plants,167,images/cactus4.png,neutral,0,[-1],0,1015.7,0,6,0,1
3770,learning,1,1,plants,169,images/cactus7.png,neutral,0,-1,0,1304.9,0,3,0,1
3770,learning,1,1,plants,171,images/tree7.png,good,4,4,1,920,4,3,1,1
3770,learning,1,1,plants,173,images/bush5.png,bad,-6,-7,0,826.7,0,3,0,1
3770,learning,2,2,furniture,190,images/bed7.png,good,5,-3,0,801.8,0,1,0,1
3770,learning,2,2,furniture,192,images/chair6.png,bad,-4,-4,0,889.1,0,1,0,1
3770,learning,2,2,furniture,194,images/chair3.png,bad,-4,1,0,443.7,0,1,1,0
3770,learning,2,2,furniture,196,images/table4.png,neutral,0,-8,1,837.3,-8,1,0,0
3770,learning,2,2,furniture,198,images/chair1.png,bad,-4,3,0,642.9,0,1,1,0
3770,learning,2,2,furniture,200,images/table7.png,neutral,0,6,0,1010.2,0,1,1,0
3770,learning,2,2,furniture,202,images/bed5.png,good,5,-2,0,1091.4,0,1,0,1
3770,learning,2,2,furniture,204,images/table4.png,neutral,0,-8,1,735.3,-8,2,0,0
3770,learning,2,2,furniture,206,images/table1.png,neutral,0,4,0,676.2,0,1,1,0
3770,learning,2,2,furniture,208,images/table7.png,neutral,0,6,1,852.9,6,2,1,1
3770,learning,2,2,furniture,210,images/chair3.png,bad,-4,1,1,683.7,1,2,1,1
3770,learning,2,2,furniture,212,images/bed3.png,good,5,-6,1,1276.7,-6,1,0,0
3770,learning,2,2,furniture,214,images/bed7.png,good,5,-3,1,1029,-3,2,0,0
3770,learning,2,2,furniture,216,images/bed5.png,good,5,-2,1,735.2,-2,2,0,0
3770,learning,2,2,furniture,218,images/chair6.png,bad,-4,-4,1,839.9,-4,2,0,0
3770,learning,2,2,furniture,220,images/table4.png,neutral,0,-8,0,569.6,0,3,0,1
3770,learning,2,2,furniture,222,images/chair3.png,bad,-4,1,0,568.2,0,3,1,0
3770,learning,2,2,furniture,224,images/bed5.png,good,5,-2,0,887.4,0,3,0,1
3770,learning,2,2,furniture,226,images/chair6.png,bad,-4,-4,0,570.2,0,3,0,1
3770,learning,2,2,furniture,228,images/table1.png,neutral,0,4,0,457,0,2,1,0
3770,learning,2,2,furniture,230,images/chair6.png,bad,-4,-4,1,438.1,-4,4,0,0
3770,learning,2,2,furniture,232,images/table4.png,neutral,0,-8,0,547.6,0,4,0,1
3770,learning,2,2,furniture,234,images/bed8.png,good,5,5,0,682.4,0,1,1,0
3770,learning,2,2,furniture,236,images/bed7.png,good,5,-3,1,829.7,-3,3,0,0
3770,learning,2,2,furniture,238,images/bed5.png,good,5,-2,0,808.7,0,4,0,1
3770,learning,2,2,furniture,240,images/table7.png,neutral,0,6,0,595.4,0,3,1,0
3770,learning,2,2,furniture,242,images/chair3.png,bad,-4,1,1,738.3,1,4,1,1
3770,learning,2,2,furniture,244,images/bed7.png,good,5,-3,1,422.3,-3,4,0,0
3770,learning,2,2,furniture,246,images/table1.png,neutral,0,4,0,457.4,0,3,1,0
3770,learning,2,2,furniture,248,images/table7.png,neutral,0,6,1,449.1,6,4,1,1
3770,learning,2,2,furniture,250,images/chair1.png,bad,-4,3,1,398.7,3,2,1,1
3770,learning,2,2,furniture,252,images/bed7.png,good,5,-3,0,885.5,0,5,0,1
3770,learning,2,2,furniture,254,images/chair3.png,bad,-4,1,1,526.9,1,5,1,1
3770,learning,2,2,furniture,256,images/chair2.png,bad,-4,-9,0,425.2,0,1,0,1
3770,learning,2,2,furniture,258,images/bed3.png,good,5,-6,1,692,-6,2,0,0
3770,learning,2,2,furniture,260,images/chair6.png,bad,-4,-4,0,990.8,0,5,0,1
3770,learning,2,2,furniture,262,images/chair6.png,bad,-4,-4,1,400.5,-4,6,0,0
3770,learning,2,2,furniture,264,images/table4.png,neutral,0,-8,1,831.5,-8,5,0,0
3770,learning,2,2,furniture,266,images/chair5.png,bad,-4,9,0,536,0,1,1,0
3770,learning,2,2,furniture,268,images/bed5.png,good,5,-2,1,728.3,-2,5,0,0
3770,learning,2,2,furniture,270,images/table6.png,neutral,0,-5,0,924.2,0,1,0,1
3770,learning,2,2,furniture,272,images/bed3.png,good,5,-6,0,622.5,0,3,0,1
3770,learning,2,2,furniture,274,images/table7.png,neutral,0,6,1,493.2,6,5,1,1
3770,learning,2,2,furniture,276,images/bed7.png,good,5,-3,0,621.7,0,6,0,1
3770,learning,2,2,furniture,278,images/chair3.png,bad,-4,1,0,423.4,0,6,1,0
3770,learning,2,2,furniture,280,images/table5.png,neutral,0,2,0,443.1,0,1,1,0
3770,learning,2,2,furniture,282,images/chair1.png,bad,-4,3,0,532.4,0,3,1,0
3770,learning,2,2,furniture,284,images/bed5.png,good,5,-2,0,1205.6,0,6,0,1
3770,learning,2,2,furniture,286,images/bed4.png,good,5,8,1,446.6,8,1,1,1
3770,learning,2,2,furniture,288,images/table4.png,neutral,0,-8,1,209.7,-8,6,0,0
3770,learning,2,2,furniture,290,images/table7.png,neutral,0,6,0,438.4,0,6,1,0
3770,learning,2,3,fruit,307,images/straw3.png,bad,-4,9,0,659.4,0,1,1,0
3770,learning,2,3,fruit,309,images/apple1.png,neutral,0,3,1,964.7,3,1,1,1
3770,learning,2,3,fruit,311,images/apple1.png,neutral,0,3,1,544.5,3,2,1,1
3770,learning,2,3,fruit,313,images/orange7.png,good,3,5,0,913.3,0,1,1,0
3770,learning,2,3,fruit,315,images/apple6.png,neutral,0,6,1,995.4,6,1,1,1
3770,learning,2,3,fruit,317,images/orange3.png,good,3,1,0,1158.5,0,1,1,0
3770,learning,2,3,fruit,319,images/straw2.png,bad,-4,-4,1,744.3,-4,1,0,0
3770,learning,2,3,fruit,321,images/orange7.png,good,3,5,0,653.5,0,2,1,0
3770,learning,2,3,fruit,323,images/orange5.png,good,3,7,1,782.6,7,1,1,1
3770,learning,2,3,fruit,325,images/orange3.png,good,3,1,0,2002.6,0,2,1,0
3770,learning,2,3,fruit,327,images/apple3.png,neutral,0,-1,1,1019.6,-1,1,0,0
3770,learning,2,3,fruit,329,images/apple6.png,neutral,0,6,0,446.1,0,2,1,0
3770,learning,2,3,fruit,331,images/straw3.png,bad,-4,9,1,912.3,9,2,1,1
3770,learning,2,3,fruit,333,images/straw2.png,bad,-4,-4,0,783.7,0,2,0,1
3770,learning,2,3,fruit,335,images/straw1.png,bad,-4,4,1,1142.7,4,1,1,1
3770,learning,2,3,fruit,337,images/orange3.png,good,3,1,0,919.2,0,3,1,0
3770,learning,2,3,fruit,339,images/apple1.png,neutral,0,3,1,1107.6,3,3,1,1
3770,learning,2,3,fruit,341,images/straw1.png,bad,-4,4,0,747.8,0,2,1,0
3770,learning,2,3,fruit,343,images/apple4.png,neutral,0,-9,0,884,0,1,0,1
3770,learning,2,3,fruit,345,images/straw2.png,bad,-4,-4,1,771.2,-4,3,0,0
3770,learning,2,3,fruit,347,images/orange5.png,good,3,7,0,666.9,0,2,1,0
3770,learning,2,3,fruit,349,images/orange4.png,good,3,-3,0,1416.9,0,1,0,1
3770,learning,2,3,fruit,351,images/orange7.png,good,3,5,0,959.2,0,3,1,0
3770,learning,2,3,fruit,353,images/apple6.png,neutral,0,6,1,954.9,6,3,1,1
3770,learning,2,3,fruit,355,images/straw3.png,bad,-4,9,1,1289,9,3,1,1
3770,learning,2,3,fruit,357,images/orange7.png,good,3,5,1,1173.9,5,4,1,1
3770,learning,2,3,fruit,359,images/straw3.png,bad,-4,9,0,862.1,0,4,1,0
3770,learning,2,3,fruit,361,images/orange5.png,good,3,7,1,494.5,7,3,1,1
3770,learning,2,3,fruit,363,images/apple1.png,neutral,0,3,1,665.3,3,4,1,1
3770,learning,2,3,fruit,365,images/orange7.png,good,3,5,0,718.2,0,5,1,0
3770,learning,2,3,fruit,367,images/orange3.png,good,3,1,1,760.7,1,4,1,1
3770,learning,2,3,fruit,369,images/apple3.png,neutral,0,-1,1,463.6,-1,2,0,0
3770,learning,2,3,fruit,371,images/straw2.png,bad,-4,-4,1,523.6,-4,4,0,0
3770,learning,2,3,fruit,373,images/apple1.png,neutral,0,3,1,817.7,3,5,1,1
3770,learning,2,3,fruit,375,images/straw3.png,bad,-4,9,1,552.1,9,5,1,1
3770,learning,2,3,fruit,377,images/straw3.png,bad,-4,9,1,687.6,9,6,1,1
3770,learning,2,3,fruit,379,images/orange3.png,good,3,1,1,652.6,1,5,1,1
3770,learning,2,3,fruit,381,images/orange6.png,good,3,-7,1,386.5,-7,1,0,0
3770,learning,2,3,fruit,383,images/straw2.png,bad,-4,-4,0,1004.9,0,5,0,1
3770,learning,2,3,fruit,385,images/apple6.png,neutral,0,6,1,793.3,6,4,1,1
3770,learning,2,3,fruit,387,images/orange3.png,good,3,1,0,756.5,0,6,1,0
3770,learning,2,3,fruit,389,images/apple6.png,neutral,0,6,1,1051.1,6,5,1,1
3770,learning,2,3,fruit,391,images/straw8.png,bad,-4,-6,1,1062.9,-6,1,0,0
3770,learning,2,3,fruit,393,images/orange7.png,good,3,5,0,549.2,0,6,1,0
3770,learning,2,3,fruit,395,images/straw1.png,bad,-4,4,1,477.7,4,3,1,1
3770,learning,2,3,fruit,397,images/straw4.png,bad,-4,-2,1,659.5,-2,1,0,0
3770,learning,2,3,fruit,399,images/apple3.png,neutral,0,-1,0,894.8,0,3,0,1
3770,learning,2,3,fruit,401,images/straw2.png,bad,-4,-4,1,711.9,-4,6,0,0
3770,learning,2,3,fruit,403,images/apple6.png,neutral,0,6,1,932.6,6,6,1,1
3770,learning,2,3,fruit,405,images/apple7.png,neutral,0,-5,1,686.8,-5,1,0,0
3770,learning,2,3,fruit,407,images/apple1.png,neutral,0,3,1,859.9,3,6,1,1
3770,learning,2,4,animals,424,images/sheep7.png,good,3,9,1,1633.8,9,1,1,1
3770,learning,2,4,animals,426,images/sheep2.png,good,3,-4,1,893.6,-4,1,0,0
3770,learning,2,4,animals,428,images/sheep2.png,good,3,-4,0,876.2,0,2,0,1
3770,learning,2,4,animals,430,images/cow1.png,neutral,0,-6,1,1143.9,-6,1,0,0
3770,learning,2,4,animals,432,images/goat6.png,bad,-3,-8,0,735.2,0,1,0,1
3770,learning,2,4,animals,434,images/sheep1.png,good,3,-7,0,717.2,0,1,0,1
3770,learning,2,4,animals,436,images/cow7.png,neutral,0,6,0,585.9,0,1,1,0
3770,learning,2,4,animals,438,images/cow6.png,neutral,0,-5,1,1001.4,-5,1,0,0
3770,learning,2,4,animals,440,images/goat3.png,bad,-3,4,0,362.2,0,1,1,0
3770,learning,2,4,animals,442,images/cow7.png,neutral,0,6,1,1370.2,6,2,1,1
3770,learning,2,4,animals,444,images/sheep7.png,good,3,9,1,826.4,9,2,1,1
3770,learning,2,4,animals,446,images/goat3.png,bad,-3,4,0,671,0,2,1,0
3770,learning,2,4,animals,448,images/goat6.png,bad,-3,-8,1,1110.2,-8,2,0,0
3770,learning,2,4,animals,450,images/cow1.png,neutral,0,-6,0,2054.4,0,2,0,1
3770,learning,2,4,animals,452,images/goat2.png,bad,-3,-3,0,1183.3,0,1,0,1
3770,learning,2,4,animals,454,images/goat6.png,bad,-3,-8,1,935.7,-8,3,0,0
3770,learning,2,4,animals,456,images/goat6.png,bad,-3,-8,0,927.3,0,4,0,1
3770,learning,2,4,animals,458,images/cow7.png,neutral,0,6,1,1269.3,6,3,1,1
3770,learning,2,4,animals,460,images/cow1.png,neutral,0,-6,0,761.7,0,3,0,1
3770,learning,2,4,animals,462,images/sheep2.png,good,3,-4,0,743.2,0,3,0,1
3770,learning,2,4,animals,464,images/cow1.png,neutral,0,-6,0,1330.7,0,4,0,1
3770,learning,2,4,animals,466,images/sheep2.png,good,3,-4,0,890.7,0,4,0,1
3770,learning,2,4,animals,468,images/goat3.png,bad,-3,4,0,1022.9,0,3,1,0
3770,learning,2,4,animals,470,images/cow6.png,neutral,0,-5,0,1247.1,0,2,0,1
3770,learning,2,4,animals,472,images/sheep2.png,good,3,-4,0,617.5,0,5,0,1
3770,learning,2,4,animals,474,images/sheep7.png,good,3,9,1,979.8,9,3,1,1
3770,learning,2,4,animals,476,images/goat7.png,bad,-3,8,0,1445,0,1,1,0
3770,learning,2,4,animals,478,images/goat6.png,bad,-3,-8,0,935.7,0,5,0,1
3770,learning,2,4,animals,480,images/cow6.png,neutral,0,-5,0,534,0,3,0,1
3770,learning,2,4,animals,482,images/goat3.png,bad,-3,4,0,790.1,0,4,1,0
3770,learning,2,4,animals,484,images/cow7.png,neutral,0,6,1,1755.1,6,4,1,1
3770,learning,2,4,animals,486,images/sheep7.png,good,3,9,1,971.4,9,4,1,1
3770,learning,2,4,animals,488,images/goat2.png,bad,-3,-3,0,811.2,0,2,0,1
3770,learning,2,4,animals,490,images/cow2.png,neutral,0,3,0,968.5,0,1,1,0
3770,learning,2,4,animals,492,images/goat3.png,bad,-3,4,1,1497,4,5,1,1
3770,learning,2,4,animals,494,images/cow8.png,neutral,0,-1,0,1529.2,0,1,0,1
3770,learning,2,4,animals,496,images/sheep1.png,good,3,-7,1,1242.4,-7,2,0,0
3770,learning,2,4,animals,498,images/sheep7.png,good,3,9,1,1053.8,9,5,1,1
3770,learning,2,4,animals,500,images/sheep8.png,good,3,5,0,1062.7,0,1,1,0
3770,learning,2,4,animals,502,images/goat3.png,bad,-3,4,1,820.7,4,6,1,1
3770,learning,2,4,animals,504,images/cow7.png,neutral,0,6,1,897.3,6,5,1,1
3770,learning,2,4,animals,506,images/sheep2.png,good,3,-4,0,781.2,0,6,0,1
3770,learning,2,4,animals,508,images/sheep7.png,good,3,9,1,835.8,9,6,1,1
3770,learning,2,4,animals,510,images/goat8.png,bad,-3,2,0,885.9,0,1,1,0
3770,learning,2,4,animals,512,images/sheep1.png,good,3,-7,0,1423.3,0,3,0,1
3770,learning,2,4,animals,514,images/cow1.png,neutral,0,-6,0,983.4,0,5,0,1
3770,learning,2,4,animals,516,images/goat2.png,bad,-3,-3,0,897.8,0,3,0,1
3770,learning,2,4,animals,518,images/sheep4.png,good,3,-2,0,1643.8,0,1,0,1
3770,learning,2,4,animals,520,images/cow1.png,neutral,0,-6,0,989.5,0,6,0,1
3770,learning,2,4,animals,522,images/cow7.png,neutral,0,6,1,847.7,6,6,1,1
3770,learning,2,4,animals,524,images/goat6.png,bad,-3,-8,1,1319.6,-8,6,0,0
3770,learning,1,5,pets,541,images/rodent8.png,bad,-4,-4,0,1334.1,0,1,0,1
3770,learning,1,5,pets,543,images/rodent7.png,bad,-4,-3,0,776.5,0,1,0,1
3770,learning,1,5,pets,545,images/rodent7.png,bad,-4,-4,0,533.1,0,2,0,1
3770,learning,1,5,pets,547,images/rodent8.png,bad,-4,2,0,796.6,0,2,0,1
3770,learning,1,5,pets,549,images/rodent5.png,bad,-4,-5,0,758.2,0,1,0,1
3770,learning,1,5,pets,551,images/rabbit6.png,good,4,3,1,1144.8,3,1,1,1
3770,learning,1,5,pets,553,images/rabbit3.png,good,4,3,1,1092.3,3,1,1,1
3770,learning,1,5,pets,555,images/cat8.png,neutral,0,-1,0,1583.7,0,1,0,1
3770,learning,1,5,pets,557,images/rabbit4.png,good,4,3,1,911,3,1,1,1
3770,learning,1,5,pets,559,images/cat8.png,neutral,0,3,0,959.9,0,2,0,1
3770,learning,1,5,pets,561,images/rabbit6.png,good,4,2,1,963.5,2,2,1,1
3770,learning,1,5,pets,563,images/rabbit3.png,good,4,4,1,1038.4,4,2,1,1
3770,learning,1,5,pets,565,images/cat3.png,neutral,0,1,0,1000.2,0,1,0,1
3770,learning,1,5,pets,567,images/cat2.png,neutral,0,1,1,1310.5,1,1,0,0
3770,learning,1,5,pets,569,images/cat2.png,neutral,0,[-1],1,819,-1,2,0,0
3770,learning,1,5,pets,571,images/rodent6.png,bad,-4,-2,0,1420,0,1,0,1
3770,learning,1,5,pets,573,images/rodent8.png,bad,-4,-4,0,556.3,0,3,0,1
3770,learning,1,5,pets,575,images/cat6.png,neutral,0,-2,1,1168.9,-2,1,0,0
3770,learning,1,5,pets,577,images/rodent8.png,bad,-4,-6,0,758.2,0,4,0,1
3770,learning,1,5,pets,579,images/rodent7.png,bad,-4,-3,0,747.3,0,3,0,1
3770,learning,1,5,pets,581,images/cat7.png,neutral,0,[1],1,1280.8,1,1,0,0
3770,learning,1,5,pets,583,images/cat8.png,neutral,0,1,0,606.1,0,3,0,1
3770,learning,1,5,pets,585,images/rodent8.png,bad,-4,-3,0,679.5,0,5,0,1
3770,learning,1,5,pets,587,images/cat8.png,neutral,0,[1],0,445.6,0,4,0,1
3770,learning,1,5,pets,589,images/rodent7.png,bad,-4,-3,0,828.3,0,4,0,1
3770,learning,1,5,pets,591,images/rodent7.png,bad,-4,-2,0,782.5,0,5,0,1
3770,learning,1,5,pets,593,images/rabbit6.png,good,4,5,1,1594.4,5,3,1,1
3770,learning,1,5,pets,595,images/rodent5.png,bad,-4,-8,0,741,0,2,0,1
3770,learning,1,5,pets,597,images/rodent5.png,bad,-4,-5,0,649.7,0,3,0,1
3770,learning,1,5,pets,599,images/rodent7.png,bad,-4,-1,0,573.8,0,6,0,1
3770,learning,1,5,pets,601,images/rabbit4.png,good,4,5,1,971.8,5,2,1,1
3770,learning,1,5,pets,603,images/rabbit3.png,good,4,6,1,855.3,6,3,1,1
3770,learning,1,5,pets,605,images/cat2.png,neutral,0,-1,0,1074.8,0,3,0,1
3770,learning,1,5,pets,607,images/cat2.png,neutral,0,1,0,704,0,4,0,1
3770,learning,1,5,pets,609,images/rodent8.png,bad,-4,-6,0,858.7,0,6,0,1
3770,learning,1,5,pets,611,images/cat3.png,neutral,0,-2,0,543,0,2,0,1
3770,learning,1,5,pets,613,images/rabbit3.png,good,4,2,1,881.1,2,4,1,1
3770,learning,1,5,pets,615,images/cat2.png,neutral,0,[1],0,1758.2,0,5,0,1
3770,learning,1,5,pets,617,images/rabbit4.png,good,4,4,1,762.7,4,3,1,1
3770,learning,1,5,pets,619,images/cat8.png,neutral,0,[1],0,1444.4,0,5,0,1
3770,learning,1,5,pets,621,images/cat3.png,neutral,0,-4,1,1555.1,-4,3,0,0
3770,learning,1,5,pets,623,images/rabbit6.png,good,4,5,0,1147.1,0,4,1,0
3770,learning,1,5,pets,625,images/rabbit6.png,good,4,4,0,835,0,5,1,0
3770,learning,1,5,pets,627,images/rabbit2.png,good,4,2,1,661.1,2,1,1,1
3770,learning,1,5,pets,629,images/rodent3.png,bad,-4,-7,0,1349.3,0,1,0,1
3770,learning,1,5,pets,631,images/rabbit8.png,good,4,6,1,932.3,6,1,1,1
3770,learning,1,5,pets,633,images/cat2.png,neutral,0,1,0,537.8,0,6,0,1
3770,learning,1,5,pets,635,images/rabbit3.png,good,4,5,1,832,5,5,1,1
3770,learning,1,5,pets,637,images/rabbit6.png,good,4,5,1,1036.1,5,6,1,1
3770,learning,1,5,pets,639,images/rabbit3.png,good,4,2,1,797.9,2,6,1,1
3770,learning,1,5,pets,641,images/cat8.png,neutral,0,1,0,943.9,0,6,0,1
3770,learning,1,6,vehicles,658,images/plane4.png,bad,-4,-1,NA,NA,-5,1,0,NA
3770,learning,1,6,vehicles,660,images/train8.png,good,4,6,1,1140,6,1,1,1
3770,learning,1,6,vehicles,662,images/boat5.png,neutral,0,[-1],0,1121.8,0,1,0,1
3770,learning,1,6,vehicles,664,images/train8.png,good,4,1,1,695.2,1,2,1,1
3770,learning,1,6,vehicles,666,images/plane5.png,bad,-4,-4,0,882.4,0,1,0,1
3770,learning,1,6,vehicles,668,images/plane5.png,bad,-4,-3,0,893.4,0,2,0,1
3770,learning,1,6,vehicles,670,images/train2.png,good,4,3,1,781.8,3,1,1,1
3770,learning,1,6,vehicles,672,images/boat2.png,neutral,0,-4,0,765.8,0,1,0,1
3770,learning,1,6,vehicles,674,images/plane3.png,bad,-4,-3,0,802.9,0,1,0,1
3770,learning,1,6,vehicles,676,images/boat6.png,neutral,0,-1,0,855.3,0,1,0,1
3770,learning,1,6,vehicles,678,images/train7.png,good,4,1,1,577.5,1,1,1,1
3770,learning,1,6,vehicles,680,images/boat6.png,neutral,0,[-1],0,784.3,0,2,0,1
3770,learning,1,6,vehicles,682,images/train7.png,good,4,6,1,612.6,6,2,1,1
3770,learning,1,6,vehicles,684,images/boat2.png,neutral,0,[1],0,497.6,0,2,0,1
3770,learning,1,6,vehicles,686,images/plane4.png,bad,-4,-5,0,1426.5,0,2,0,1
3770,learning,1,6,vehicles,688,images/train1.png,good,4,4,1,1209.2,4,1,1,1
3770,learning,1,6,vehicles,690,images/train2.png,good,4,3,0,612.7,0,2,1,0
3770,learning,1,6,vehicles,692,images/boat2.png,neutral,0,1,0,763.1,0,3,0,1
3770,learning,1,6,vehicles,694,images/plane3.png,bad,-4,-2,0,906.9,0,2,0,1
3770,learning,1,6,vehicles,696,images/plane4.png,bad,-4,-6,0,1141.2,0,3,0,1
3770,learning,1,6,vehicles,698,images/plane5.png,bad,-4,-3,0,1054.4,0,3,0,1
3770,learning,1,6,vehicles,700,images/plane1.png,bad,-4,-4,0,868.9,0,1,0,1
3770,learning,1,6,vehicles,702,images/train8.png,good,4,2,1,882.9,2,3,1,1
3770,learning,1,6,vehicles,704,images/plane5.png,bad,-4,-1,0,1261,0,4,0,1
3770,learning,1,6,vehicles,706,images/boat2.png,neutral,0,2,1,499.9,2,4,0,0
3770,learning,1,6,vehicles,708,images/boat2.png,neutral,0,[-1],1,680.1,-1,5,0,0
3770,learning,1,6,vehicles,710,images/boat5.png,neutral,0,-2,0,882.1,0,2,0,1
3770,learning,1,6,vehicles,712,images/train8.png,good,4,6,1,1166.7,6,4,1,1
3770,learning,1,6,vehicles,714,images/plane4.png,bad,-4,-7,0,626.9,0,4,0,1
3770,learning,1,6,vehicles,716,images/boat8.png,neutral,0,1,0,1182.9,0,1,0,1
3770,learning,1,6,vehicles,718,images/boat1.png,neutral,0,-1,0,1135.1,0,1,0,1
3770,learning,1,6,vehicles,720,images/train7.png,good,4,4,1,736.6,4,3,1,1
3770,learning,1,6,vehicles,722,images/boat6.png,neutral,0,3,0,611.5,0,3,0,1
3770,learning,1,6,vehicles,724,images/plane4.png,bad,-4,-2,0,1309.8,0,5,0,1
3770,learning,1,6,vehicles,726,images/train7.png,good,4,4,1,829.7,4,4,1,1
3770,learning,1,6,vehicles,728,images/train7.png,good,4,6,1,924.7,6,5,1,1
3770,learning,1,6,vehicles,730,images/boat6.png,neutral,0,1,1,1504.8,1,4,0,0
3770,learning,1,6,vehicles,732,images/train7.png,good,4,2,1,937.6,2,6,1,1
3770,learning,1,6,vehicles,734,images/plane2.png,bad,-4,-1,0,771.6,0,1,0,1
3770,learning,1,6,vehicles,736,images/train8.png,good,4,4,1,935.5,4,5,1,1
3770,learning,1,6,vehicles,738,images/boat6.png,neutral,0,-2,0,667.6,0,5,0,1
3770,learning,1,6,vehicles,740,images/boat6.png,neutral,0,-3,0,805.8,0,6,0,1
3770,learning,1,6,vehicles,742,images/train3.png,good,4,3,1,1177.3,3,1,1,1
3770,learning,1,6,vehicles,744,images/plane3.png,bad,-4,-4,0,838.5,0,3,0,1
3770,learning,1,6,vehicles,746,images/plane5.png,bad,-4,-5,0,1077.7,0,5,0,1
3770,learning,1,6,vehicles,748,images/boat2.png,neutral,0,1,1,903.1,1,6,0,0
3770,learning,1,6,vehicles,750,images/train2.png,good,4,4,1,557.4,4,3,1,1
3770,learning,1,6,vehicles,752,images/boat5.png,neutral,0,-1,0,907.2,0,3,0,1
3770,learning,1,6,vehicles,754,images/train8.png,good,4,4,1,1023.6,4,6,1,1
3770,learning,1,6,vehicles,756,images/plane5.png,bad,-4,-7,0,1174.4,0,6,0,1
3770,learning,1,6,vehicles,758,images/plane4.png,bad,-4,-3,0,1062.2,0,6,0,1
3857,learning,2,1,furniture,73,images/chair7.png,good,3,-3,1,635.4,-3,1,0,0
3857,learning,2,1,furniture,75,images/bed7.png,bad,-4,8,0,729.3,0,1,1,0
3857,learning,2,1,furniture,77,images/sofa1.png,neutral,0,-5,1,979.4,-5,1,0,0
3857,learning,2,1,furniture,79,images/chair3.png,good,3,7,0,1061.2,0,1,1,0
3857,learning,2,1,furniture,81,images/sofa8.png,neutral,0,1,0,1165.6,0,1,1,0
3857,learning,2,1,furniture,83,images/chair1.png,good,3,3,1,804.4,3,1,1,1
3857,learning,2,1,furniture,85,images/bed4.png,bad,-4,-1,1,898.7,-1,1,0,0
3857,learning,2,1,furniture,87,images/sofa8.png,neutral,0,1,0,1036,0,2,1,0
3857,learning,2,1,furniture,89,images/bed7.png,bad,-4,8,0,1354,0,2,1,0
3857,learning,2,1,furniture,91,images/bed8.png,bad,-4,-4,1,1018.5,-4,1,0,0
3857,learning,2,1,furniture,93,images/sofa2.png,neutral,0,6,1,1145.4,6,1,1,1
3857,learning,2,1,furniture,95,images/sofa2.png,neutral,0,6,1,663.5,6,2,1,1
3857,learning,2,1,furniture,97,images/bed8.png,bad,-4,-4,0,855.3,0,2,0,1
3857,learning,2,1,furniture,99,images/chair1.png,good,3,3,1,1392,3,2,1,1
3857,learning,2,1,furniture,101,images/chair3.png,good,3,7,0,836.3,0,2,1,0
3857,learning,2,1,furniture,103,images/sofa2.png,neutral,0,6,1,1016.9,6,3,1,1
3857,learning,2,1,furniture,105,images/sofa3.png,neutral,0,-9,0,1128.5,0,1,0,1
3857,learning,2,1,furniture,107,images/chair1.png,good,3,3,0,1052.6,0,3,1,0
3857,learning,2,1,furniture,109,images/chair7.png,good,3,-3,0,1069.2,0,2,0,1
3857,learning,2,1,furniture,111,images/sofa1.png,neutral,0,-5,1,1503.3,-5,2,0,0
3857,learning,2,1,furniture,113,images/sofa2.png,neutral,0,6,1,682.9,6,4,1,1
3857,learning,2,1,furniture,115,images/bed4.png,bad,-4,-1,0,1049.4,0,2,0,1
3857,learning,2,1,furniture,117,images/bed8.png,bad,-4,-4,1,1295.4,-4,3,0,0
3857,learning,2,1,furniture,119,images/bed6.png,bad,-4,-8,1,993,-8,1,0,0
3857,learning,2,1,furniture,121,images/chair1.png,good,3,3,0,864.1,0,4,1,0
3857,learning,2,1,furniture,123,images/sofa8.png,neutral,0,1,1,2018.4,1,3,1,1
3857,learning,2,1,furniture,125,images/bed8.png,bad,-4,-4,1,1814.5,-4,4,0,0
3857,learning,2,1,furniture,127,images/bed8.png,bad,-4,-4,0,812.3,0,5,0,1
3857,learning,2,1,furniture,129,images/sofa2.png,neutral,0,6,1,1365.9,6,5,1,1
3857,learning,2,1,furniture,131,images/sofa6.png,neutral,0,5,0,1007.1,0,1,1,0
3857,learning,2,1,furniture,133,images/bed7.png,bad,-4,8,0,1544.1,0,3,1,0
3857,learning,2,1,furniture,135,images/chair3.png,good,3,7,0,869.4,0,3,1,0
3857,learning,2,1,furniture,137,images/chair6.png,good,3,-6,0,1027.3,0,1,0,1
3857,learning,2,1,furniture,139,images/bed7.png,bad,-4,8,1,1570.8,8,4,1,1
3857,learning,2,1,furniture,141,images/chair8.png,good,3,2,0,1743.6,0,1,1,0
3857,learning,2,1,furniture,143,images/chair3.png,good,3,7,0,744.8,0,4,1,0
3857,learning,2,1,furniture,145,images/sofa8.png,neutral,0,1,1,856.4,1,4,1,1
3857,learning,2,1,furniture,147,images/sofa8.png,neutral,0,1,1,645.4,1,5,1,1
3857,learning,2,1,furniture,149,images/chair1.png,good,3,3,0,783.1,0,5,1,0
3857,learning,2,1,furniture,151,images/chair7.png,good,3,-3,1,995.2,-3,3,0,0
3857,learning,2,1,furniture,153,images/bed7.png,bad,-4,8,1,1667.6,8,5,1,1
3857,learning,2,1,furniture,155,images/chair3.png,good,3,7,0,802.2,0,5,1,0
3857,learning,2,1,furniture,157,images/sofa2.png,neutral,0,6,1,762.1,6,6,1,1
3857,learning,2,1,furniture,159,images/sofa8.png,neutral,0,1,1,727.3,1,6,1,1
3857,learning,2,1,furniture,161,images/bed7.png,bad,-4,8,1,1622.6,8,6,1,1
3857,learning,2,1,furniture,163,images/bed4.png,bad,-4,-1,0,822.2,0,3,0,1
3857,learning,2,1,furniture,165,images/bed8.png,bad,-4,-4,0,782.6,0,6,0,1
3857,learning,2,1,furniture,167,images/chair3.png,good,3,7,0,793.4,0,6,1,0
3857,learning,2,1,furniture,169,images/chair1.png,good,3,3,0,734.9,0,6,1,0
3857,learning,2,1,furniture,171,images/bed5.png,bad,-4,4,0,922.5,0,1,1,0
3857,learning,2,1,furniture,173,images/sofa1.png,neutral,0,-5,0,961.8,0,3,0,1
3857,learning,1,2,plants,190,images/tree2.png,good,6,5,1,1609.9,5,1,1,1
3857,learning,1,2,plants,192,images/cactus5.png,bad,-5,-5,1,962.2,-5,1,0,0
3857,learning,1,2,plants,194,images/cactus7.png,bad,-5,-7,0,1187.2,0,1,0,1
3857,learning,1,2,plants,196,images/flower8.png,neutral,0,-1,1,769,-1,1,0,0
3857,learning,1,2,plants,198,images/tree2.png,good,6,8,1,907.7,8,2,1,1
3857,learning,1,2,plants,200,images/tree6.png,good,6,3,0,917.6,0,1,1,0
3857,learning,1,2,plants,202,images/tree8.png,good,6,6,1,868.7,6,1,1,1
3857,learning,1,2,plants,204,images/cactus1.png,bad,-5,-5,0,688.8,0,1,0,1
3857,learning,1,2,plants,206,images/cactus5.png,bad,-5,-2,0,955.5,0,2,0,1
3857,learning,1,2,plants,208,images/flower8.png,neutral,0,1,0,942.4,0,2,0,1
3857,learning,1,2,plants,210,images/flower4.png,neutral,0,-1,0,1096.8,0,1,0,1
3857,learning,1,2,plants,212,images/cactus7.png,bad,-5,-6,0,913.2,0,2,0,1
3857,learning,1,2,plants,214,images/flower3.png,neutral,0,-2,0,908.8,0,1,0,1
3857,learning,1,2,plants,216,images/tree8.png,good,6,5,1,651.7,5,2,1,1
3857,learning,1,2,plants,218,images/flower4.png,neutral,0,1,0,773.7,0,2,0,1
3857,learning,1,2,plants,220,images/tree8.png,good,6,7,1,948.2,7,3,1,1
3857,learning,1,2,plants,222,images/cactus6.png,bad,-5,-4,0,1669.7,0,1,0,1
3857,learning,1,2,plants,224,images/tree2.png,good,6,7,1,665.9,7,3,1,1
3857,learning,1,2,plants,226,images/cactus5.png,bad,-5,-6,0,581.2,0,3,0,1
3857,learning,1,2,plants,228,images/tree5.png,good,6,7,1,895.4,7,1,1,1
3857,learning,1,2,plants,230,images/cactus5.png,bad,-5,-6,1,1190.5,-6,4,0,0
3857,learning,1,2,plants,232,images/tree2.png,good,6,6,1,604.6,6,4,1,1
3857,learning,1,2,plants,234,images/flower3.png,neutral,0,1,0,657.2,0,2,0,1
3857,learning,1,2,plants,236,images/tree2.png,good,6,7,1,837.6,7,5,1,1
3857,learning,1,2,plants,238,images/flower8.png,neutral,0,1,1,682.4,1,3,0,0
3857,learning,1,2,plants,240,images/flower4.png,neutral,0,1,1,689.6,1,3,0,0
3857,learning,1,2,plants,242,images/cactus1.png,bad,-5,-6,0,836.8,0,2,0,1
3857,learning,1,2,plants,244,images/flower4.png,neutral,0,-1,1,645.4,-1,4,0,0
3857,learning,1,2,plants,246,images/cactus7.png,bad,-5,-5,0,794.2,0,3,0,1
3857,learning,1,2,plants,248,images/cactus5.png,bad,-5,-5,0,718.3,0,5,0,1
3857,learning,1,2,plants,250,images/flower4.png,neutral,0,-3,1,612.3,-3,5,0,0
3857,learning,1,2,plants,252,images/tree6.png,good,6,6,1,634.7,6,2,1,1
3857,learning,1,2,plants,254,images/tree8.png,good,6,7,1,525.9,7,4,1,1
3857,learning,1,2,plants,256,images/cactus3.png,bad,-5,-3,0,648.4,0,1,0,1
3857,learning,1,2,plants,258,images/cactus7.png,bad,-5,-6,0,500.1,0,4,0,1
3857,learning,1,2,plants,260,images/tree7.png,good,6,7,1,634.6,7,1,1,1
3857,learning,1,2,plants,262,images/tree2.png,good,6,6,1,561.6,6,6,1,1
3857,learning,1,2,plants,264,images/tree8.png,good,6,5,1,486.9,5,5,1,1
3857,learning,1,2,plants,266,images/flower8.png,neutral,0,[-1],0,1164.8,0,4,0,1
3857,learning,1,2,plants,268,images/tree6.png,good,6,6,1,621.6,6,3,1,1
3857,learning,1,2,plants,270,images/cactus7.png,bad,-5,-5,0,622.3,0,5,0,1
3857,learning,1,2,plants,272,images/flower6.png,neutral,0,-1,0,1231.8,0,1,0,1
3857,learning,1,2,plants,274,images/flower8.png,neutral,0,[-1],0,1300.5,0,5,0,1
3857,learning,1,2,plants,276,images/flower7.png,neutral,0,-1,0,734.1,0,1,0,1
3857,learning,1,2,plants,278,images/cactus1.png,bad,-5,-5,0,788.7,0,3,0,1
3857,learning,1,2,plants,280,images/flower4.png,neutral,0,-1,0,650.2,0,6,0,1
3857,learning,1,2,plants,282,images/cactus7.png,bad,-5,-8,0,606.7,0,6,0,1
3857,learning,1,2,plants,284,images/tree8.png,good,6,4,1,589.8,4,6,1,1
3857,learning,1,2,plants,286,images/cactus5.png,bad,-5,-5,0,651,0,6,0,1
3857,learning,1,2,plants,288,images/flower8.png,neutral,0,-3,0,961.8,0,6,0,1
3857,learning,1,2,plants,290,images/flower3.png,neutral,0,-1,0,604.8,0,3,0,1
3857,learning,2,3,pets,307,images/dog8.png,bad,-5,-5,0,1116.9,0,1,0,1
3857,learning,2,3,pets,309,images/cat3.png,neutral,0,-8,1,1174.8,-8,1,0,0
3857,learning,2,3,pets,311,images/rodent1.png,good,6,6,0,1120.9,0,1,1,0
3857,learning,2,3,pets,313,images/rodent5.png,good,6,-7,1,989.4,-7,1,0,0
3857,learning,2,3,pets,315,images/rodent1.png,good,6,6,1,918.9,6,2,1,1
3857,learning,2,3,pets,317,images/dog2.png,bad,-5,-6,0,973.6,0,1,0,1
3857,learning,2,3,pets,319,images/cat2.png,neutral,0,9,0,901.4,0,1,1,0
3857,learning,2,3,pets,321,images/rodent5.png,good,6,-7,0,1086.4,0,2,0,1
3857,learning,2,3,pets,323,images/dog7.png,bad,-5,8,0,1159.1,0,1,1,0
3857,learning,2,3,pets,325,images/cat8.png,neutral,0,-4,0,1357.8,0,1,0,1
3857,learning,2,3,pets,327,images/cat8.png,neutral,0,-4,0,894.9,0,2,0,1
3857,learning,2,3,pets,329,images/dog2.png,bad,-5,-6,1,1089,-6,2,0,0
3857,learning,2,3,pets,331,images/rodent7.png,good,6,4,0,884.5,0,1,1,0
3857,learning,2,3,pets,333,images/cat2.png,neutral,0,9,1,1053.5,9,2,1,1
3857,learning,2,3,pets,335,images/dog8.png,bad,-5,-5,0,1860.1,0,2,0,1
3857,learning,2,3,pets,337,images/dog2.png,bad,-5,-6,0,978.7,0,3,0,1
3857,learning,2,3,pets,339,images/dog8.png,bad,-5,-5,0,1228.8,0,3,0,1
3857,learning,2,3,pets,341,images/cat8.png,neutral,0,-4,1,1097,-4,3,0,0
3857,learning,2,3,pets,343,images/dog5.png,bad,-5,5,1,1110.3,5,1,1,1
3857,learning,2,3,pets,345,images/rodent5.png,good,6,-7,0,887.6,0,3,0,1
3857,learning,2,3,pets,347,images/dog8.png,bad,-5,-5,0,1521,0,4,0,1
3857,learning,2,3,pets,349,images/rodent5.png,good,6,-7,0,847.9,0,4,0,1
3857,learning,2,3,pets,351,images/rodent1.png,good,6,6,1,815.2,6,3,1,1
3857,learning,2,3,pets,353,images/dog8.png,bad,-5,-5,0,711.7,0,5,0,1
3857,learning,2,3,pets,355,images/rodent7.png,good,6,4,1,1458.4,4,2,1,1
3857,learning,2,3,pets,357,images/cat3.png,neutral,0,-8,1,1327.9,-8,2,0,0
3857,learning,2,3,pets,359,images/cat2.png,neutral,0,9,1,649.9,9,3,1,1
3857,learning,2,3,pets,361,images/cat2.png,neutral,0,9,1,600.5,9,4,1,1
3857,learning,2,3,pets,363,images/rodent5.png,good,6,-7,0,770.2,0,5,0,1
3857,learning,2,3,pets,365,images/dog7.png,bad,-5,8,1,1080.6,8,2,1,1
3857,learning,2,3,pets,367,images/cat6.png,neutral,0,-1,1,1449.7,-1,1,0,0
3857,learning,2,3,pets,369,images/cat3.png,neutral,0,-8,0,2028.1,0,3,0,1
3857,learning,2,3,pets,371,images/rodent1.png,good,6,6,1,888.8,6,4,1,1
3857,learning,2,3,pets,373,images/cat2.png,neutral,0,9,1,846.5,9,5,1,1
3857,learning,2,3,pets,375,images/dog2.png,bad,-5,-6,0,760.8,0,4,0,1
3857,learning,2,3,pets,377,images/cat5.png,neutral,0,3,0,1425,0,1,1,0
3857,learning,2,3,pets,379,images/cat8.png,neutral,0,-4,0,1141.6,0,4,0,1
3857,learning,2,3,pets,381,images/cat8.png,neutral,0,-4,0,698.5,0,5,0,1
3857,learning,2,3,pets,383,images/rodent8.png,good,6,-3,0,932.4,0,1,0,1
3857,learning,2,3,pets,385,images/cat8.png,neutral,0,-4,0,805.9,0,6,0,1
3857,learning,2,3,pets,387,images/dog8.png,bad,-5,-5,1,889.1,-5,6,0,0
3857,learning,2,3,pets,389,images/dog7.png,bad,-5,8,1,672.1,8,3,1,1
3857,learning,2,3,pets,391,images/rodent4.png,good,6,1,0,991.1,0,1,1,0
3857,learning,2,3,pets,393,images/dog2.png,bad,-5,-6,0,907.6,0,5,0,1
3857,learning,2,3,pets,395,images/rodent1.png,good,6,6,1,738.8,6,5,1,1
3857,learning,2,3,pets,397,images/dog3.png,bad,-5,-2,0,1581.2,0,1,0,1
3857,learning,2,3,pets,399,images/rodent5.png,good,6,-7,0,887.3,0,6,0,1
3857,learning,2,3,pets,401,images/dog2.png,bad,-5,-6,0,861.4,0,6,0,1
3857,learning,2,3,pets,403,images/rodent7.png,good,6,4,1,842.1,4,3,1,1
3857,learning,2,3,pets,405,images/cat2.png,neutral,0,9,1,718.4,9,6,1,1
3857,learning,2,3,pets,407,images/rodent1.png,good,6,6,1,744.1,6,6,1,1
3857,learning,2,4,fruit,424,images/orange5.png,bad,-6,6,1,1364.9,6,1,1,1
3857,learning,2,4,fruit,426,images/orange5.png,bad,-6,6,1,493.2,6,2,1,1
3857,learning,2,4,fruit,428,images/straw1.png,good,5,-3,0,769.2,0,1,0,1
3857,learning,2,4,fruit,430,images/straw4.png,good,5,7,0,642.4,0,1,1,0
3857,learning,2,4,fruit,432,images/apple7.png,neutral,0,3,1,835.2,3,1,1,1
3857,learning,2,4,fruit,434,images/orange7.png,bad,-6,5,1,715.1,5,1,1,1
3857,learning,2,4,fruit,436,images/straw4.png,good,5,7,0,1020.4,0,2,1,0
3857,learning,2,4,fruit,438,images/apple5.png,neutral,0,1,1,936,1,1,1,1
3857,learning,2,4,fruit,440,images/orange3.png,bad,-6,-9,1,644.7,-9,1,0,0
3857,learning,2,4,fruit,442,images/apple5.png,neutral,0,1,1,916.1,1,2,1,1
3857,learning,2,4,fruit,444,images/apple2.png,neutral,0,9,1,767.4,9,1,1,1
3857,learning,2,4,fruit,446,images/straw2.png,good,5,-1,0,1078.4,0,1,0,1
3857,learning,2,4,fruit,448,images/straw1.png,good,5,-3,0,1229.2,0,2,0,1
3857,learning,2,4,fruit,450,images/orange7.png,bad,-6,5,1,710.8,5,2,1,1
3857,learning,2,4,fruit,452,images/apple7.png,neutral,0,3,1,1034.2,3,2,1,1
3857,learning,2,4,fruit,454,images/straw1.png,good,5,-3,0,2282.4,0,3,0,1
3857,learning,2,4,fruit,456,images/orange5.png,bad,-6,6,1,761.2,6,3,1,1
3857,learning,2,4,fruit,458,images/apple7.png,neutral,0,3,1,709.5,3,3,1,1
3857,learning,2,4,fruit,460,images/apple7.png,neutral,0,3,1,532.5,3,4,1,1
3857,learning,2,4,fruit,462,images/orange7.png,bad,-6,5,1,869.8,5,3,1,1
3857,learning,2,4,fruit,464,images/apple7.png,neutral,0,3,1,660,3,5,1,1
3857,learning,2,4,fruit,466,images/straw7.png,good,5,4,1,1319.6,4,1,1,1
3857,learning,2,4,fruit,468,images/straw4.png,good,5,7,0,1012.2,0,3,1,0
3857,learning,2,4,fruit,470,images/straw2.png,good,5,-1,0,992.2,0,2,0,1
3857,learning,2,4,fruit,472,images/straw1.png,good,5,-3,0,1208.7,0,4,0,1
3857,learning,2,4,fruit,474,images/apple2.png,neutral,0,9,1,673.4,9,2,1,1
3857,learning,2,4,fruit,476,images/orange3.png,bad,-6,-9,1,630.7,-9,2,0,0
3857,learning,2,4,fruit,478,images/orange5.png,bad,-6,6,1,1337.5,6,4,1,1
3857,learning,2,4,fruit,480,images/orange5.png,bad,-6,6,1,622.9,6,5,1,1
3857,learning,2,4,fruit,482,images/straw4.png,good,5,7,1,1295,7,4,1,1
3857,learning,2,4,fruit,484,images/orange7.png,bad,-6,5,1,882.6,5,4,1,1
3857,learning,2,4,fruit,486,images/orange5.png,bad,-6,6,1,1953.5,6,6,1,1
3857,learning,2,4,fruit,488,images/apple4.png,neutral,0,-4,1,993.8,-4,1,0,0
3857,learning,2,4,fruit,490,images/straw4.png,good,5,7,1,1046.9,7,5,1,1
3857,learning,2,4,fruit,492,images/apple5.png,neutral,0,1,1,767.7,1,3,1,1
3857,learning,2,4,fruit,494,images/straw1.png,good,5,-3,1,954.8,-3,5,0,0
3857,learning,2,4,fruit,496,images/orange1.png,bad,-6,2,1,1135.2,2,1,1,1
3857,learning,2,4,fruit,498,images/apple5.png,neutral,0,1,1,655.6,1,4,1,1
3857,learning,2,4,fruit,500,images/orange8.png,bad,-6,-5,1,657.8,-5,1,0,0
3857,learning,2,4,fruit,502,images/apple2.png,neutral,0,9,1,657.4,9,3,1,1
3857,learning,2,4,fruit,504,images/orange3.png,bad,-6,-9,0,944.3,0,3,0,1
3857,learning,2,4,fruit,506,images/apple6.png,neutral,0,-8,1,858,-8,1,0,0
3857,learning,2,4,fruit,508,images/apple5.png,neutral,0,1,1,861.1,1,5,1,1
3857,learning,2,4,fruit,510,images/straw4.png,good,5,7,1,939.4,7,6,1,1
3857,learning,2,4,fruit,512,images/apple7.png,neutral,0,3,1,710.7,3,6,1,1
3857,learning,2,4,fruit,514,images/apple5.png,neutral,0,1,1,759.7,1,6,1,1
3857,learning,2,4,fruit,516,images/straw2.png,good,5,-1,0,1024.4,0,3,0,1
3857,learning,2,4,fruit,518,images/orange7.png,bad,-6,5,1,1131.2,5,5,1,1
3857,learning,2,4,fruit,520,images/straw5.png,good,5,-6,0,1189.3,0,1,0,1
3857,learning,2,4,fruit,522,images/orange7.png,bad,-6,5,1,759.7,5,6,1,1
3857,learning,2,4,fruit,524,images/straw1.png,good,5,-3,1,1928.4,-3,6,0,0
3857,learning,1,5,animals,541,images/sheep5.png,bad,-4,-2,0,821.8,0,1,0,1
3857,learning,1,5,animals,543,images/cow3.png,neutral,0,-2,1,746.2,-2,1,0,0
3857,learning,1,5,animals,545,images/sheep6.png,bad,-4,-5,0,955.1,0,1,0,1
3857,learning,1,5,animals,547,images/sheep4.png,bad,-4,-7,0,708.7,0,1,0,1
3857,learning,1,5,animals,549,images/cow3.png,neutral,0,-1,0,1010.5,0,2,0,1
3857,learning,1,5,animals,551,images/cow2.png,neutral,0,-1,1,1032.5,-1,1,0,0
3857,learning,1,5,animals,553,images/cow2.png,neutral,0,2,0,895.1,0,2,0,1
3857,learning,1,5,animals,555,images/horse2.png,good,3,3,1,1051.8,3,1,1,1
3857,learning,1,5,animals,557,images/horse1.png,good,3,2,1,553.8,2,1,1,1
3857,learning,1,5,animals,559,images/horse1.png,good,3,2,1,492.8,2,2,1,1
3857,learning,1,5,animals,561,images/horse2.png,good,3,3,1,875.2,3,2,1,1
3857,learning,1,5,animals,563,images/sheep5.png,bad,-4,-6,0,769.9,0,2,0,1
3857,learning,1,5,animals,565,images/horse6.png,good,3,4,1,719.6,4,1,1,1
3857,learning,1,5,animals,567,images/sheep6.png,bad,-4,-5,0,675.8,0,2,0,1
3857,learning,1,5,animals,569,images/cow6.png,neutral,0,-1,0,1488.1,0,1,0,1
3857,learning,1,5,animals,571,images/horse2.png,good,3,1,1,694.9,1,3,1,1
3857,learning,1,5,animals,573,images/cow2.png,neutral,0,-2,1,908.8,-2,3,0,0
3857,learning,1,5,animals,575,images/cow3.png,neutral,0,2,0,943,0,3,0,1
3857,learning,1,5,animals,577,images/horse8.png,good,3,2,1,807.6,2,1,1,1
3857,learning,1,5,animals,579,images/cow1.png,neutral,0,-2,0,1081,0,1,0,1
3857,learning,1,5,animals,581,images/sheep7.png,bad,-4,-2,0,780.3,0,1,0,1
3857,learning,1,5,animals,583,images/cow3.png,neutral,0,2,0,1160.7,0,4,0,1
3857,learning,1,5,animals,585,images/horse1.png,good,3,2,1,687.4,2,3,1,1
3857,learning,1,5,animals,587,images/sheep6.png,bad,-4,-3,0,710.1,0,3,0,1
3857,learning,1,5,animals,589,images/horse6.png,good,3,6,1,667.2,6,2,1,1
3857,learning,1,5,animals,591,images/horse4.png,good,3,3,1,624.1,3,1,1,1
3857,learning,1,5,animals,593,images/sheep4.png,bad,-4,2,0,553.6,0,2,0,1
3857,learning,1,5,animals,595,images/horse1.png,good,3,4,1,660.9,4,4,1,1
3857,learning,1,5,animals,597,images/horse2.png,good,3,3,1,587.2,3,4,1,1
3857,learning,1,5,animals,599,images/cow2.png,neutral,0,[1],0,1528.3,0,4,0,1
3857,learning,1,5,animals,601,images/sheep5.png,bad,-4,-4,0,795.9,0,3,0,1
3857,learning,1,5,animals,603,images/cow2.png,neutral,0,[-1],1,1052.6,-1,5,0,0
3857,learning,1,5,animals,605,images/sheep5.png,bad,-4,-4,0,864.5,0,4,0,1
3857,learning,1,5,animals,607,images/sheep6.png,bad,-4,-4,0,1309.8,0,4,0,1
3857,learning,1,5,animals,609,images/sheep6.png,bad,-4,-3,0,610.7,0,5,0,1
3857,learning,1,5,animals,611,images/sheep5.png,bad,-4,-6,0,825.3,0,5,0,1
3857,learning,1,5,animals,613,images/sheep6.png,bad,-4,-4,0,735.1,0,6,0,1
3857,learning,1,5,animals,615,images/cow7.png,neutral,0,[-1],0,991.4,0,1,0,1
3857,learning,1,5,animals,617,images/horse2.png,good,3,3,1,668.2,3,5,1,1
3857,learning,1,5,animals,619,images/horse1.png,good,3,5,1,516.1,5,5,1,1
3857,learning,1,5,animals,621,images/sheep5.png,bad,-4,-6,0,720.4,0,6,0,1
3857,learning,1,5,animals,623,images/sheep4.png,bad,-4,-5,1,708.7,-5,3,0,0
3857,learning,1,5,animals,625,images/horse1.png,good,3,2,1,683.8,2,6,1,1
3857,learning,1,5,animals,627,images/horse2.png,good,3,1,1,499.7,1,6,1,1
3857,learning,1,5,animals,629,images/cow3.png,neutral,0,1,0,981.1,0,5,0,1
3857,learning,1,5,animals,631,images/cow6.png,neutral,0,[1],0,756.3,0,2,0,1
3857,learning,1,5,animals,633,images/cow2.png,neutral,0,[1],0,896.1,0,6,0,1
3857,learning,1,5,animals,635,images/sheep2.png,bad,-4,-4,0,1088.5,0,1,0,1
3857,learning,1,5,animals,637,images/cow6.png,neutral,0,1,0,747.1,0,3,0,1
3857,learning,1,5,animals,639,images/cow3.png,neutral,0,1,1,949.2,1,6,0,0
3857,learning,1,5,animals,641,images/horse6.png,good,3,3,1,728.9,3,3,1,1
3857,learning,1,6,vehicles,658,images/plane7.png,good,4,5,1,1355.2,5,1,1,1
3857,learning,1,6,vehicles,660,images/train3.png,neutral,0,[1],0,953.9,0,1,0,1
3857,learning,1,6,vehicles,662,images/train4.png,neutral,0,-1,1,609.3,-1,1,0,0
3857,learning,1,6,vehicles,664,images/truck8.png,bad,-5,-2,1,786.3,-2,1,0,0
3857,learning,1,6,vehicles,666,images/plane4.png,good,4,4,1,863.7,4,1,1,1
3857,learning,1,6,vehicles,668,images/truck6.png,bad,-5,-6,0,628,0,1,0,1
3857,learning,1,6,vehicles,670,images/plane3.png,good,4,3,1,640,3,1,1,1
3857,learning,1,6,vehicles,672,images/train3.png,neutral,0,-1,1,761.1,-1,2,0,0
3857,learning,1,6,vehicles,674,images/truck7.png,bad,-5,-6,0,754.9,0,1,0,1
3857,learning,1,6,vehicles,676,images/train6.png,neutral,0,-1,0,713,0,1,0,1
3857,learning,1,6,vehicles,678,images/truck6.png,bad,-5,-5,0,859,0,2,0,1
3857,learning,1,6,vehicles,680,images/truck7.png,bad,-5,-5,0,638.2,0,2,0,1
3857,learning,1,6,vehicles,682,images/plane3.png,good,4,1,1,612.9,1,2,1,1
3857,learning,1,6,vehicles,684,images/train4.png,neutral,0,1,0,1158.6,0,2,0,1
3857,learning,1,6,vehicles,686,images/plane4.png,good,4,2,1,698.6,2,2,1,1
3857,learning,1,6,vehicles,688,images/plane3.png,good,4,6,1,625,6,3,1,1
3857,learning,1,6,vehicles,690,images/plane4.png,good,4,2,1,556.9,2,3,1,1
3857,learning,1,6,vehicles,692,images/plane3.png,good,4,5,1,500.4,5,4,1,1
3857,learning,1,6,vehicles,694,images/train4.png,neutral,0,-4,1,794.7,-4,3,0,0
3857,learning,1,6,vehicles,696,images/train4.png,neutral,0,[1],1,814.3,1,4,0,0
3857,learning,1,6,vehicles,698,images/train4.png,neutral,0,1,1,730.6,1,5,0,0
3857,learning,1,6,vehicles,700,images/truck7.png,bad,-5,-5,0,699.5,0,3,0,1
3857,learning,1,6,vehicles,702,images/truck7.png,bad,-5,-4,0,515,0,4,0,1
3857,learning,1,6,vehicles,704,images/train3.png,neutral,0,1,0,925.3,0,3,0,1
3857,learning,1,6,vehicles,706,images/train6.png,neutral,0,-1,0,783.3,0,2,0,1
3857,learning,1,6,vehicles,708,images/truck6.png,bad,-5,-5,0,668.9,0,3,0,1
3857,learning,1,6,vehicles,710,images/truck6.png,bad,-5,-7,0,535.9,0,4,0,1
3857,learning,1,6,vehicles,712,images/truck3.png,bad,-5,-6,0,725.5,0,1,0,1
3857,learning,1,6,vehicles,714,images/train6.png,neutral,0,-2,0,553.3,0,3,0,1
3857,learning,1,6,vehicles,716,images/plane7.png,good,4,4,1,734.5,4,2,1,1
3857,learning,1,6,vehicles,718,images/truck8.png,bad,-5,-4,0,570.9,0,2,0,1
3857,learning,1,6,vehicles,720,images/plane3.png,good,4,3,1,612.2,3,5,1,1
3857,learning,1,6,vehicles,722,images/truck7.png,bad,-5,-6,0,705,0,5,0,1
3857,learning,1,6,vehicles,724,images/truck5.png,bad,-5,-3,0,599.5,0,1,0,1
3857,learning,1,6,vehicles,726,images/truck8.png,bad,-5,-4,0,636.9,0,3,0,1
3857,learning,1,6,vehicles,728,images/truck6.png,bad,-5,-4,0,695.4,0,5,0,1
3857,learning,1,6,vehicles,730,images/train7.png,neutral,0,[-1],0,923.2,0,1,0,1
3857,learning,1,6,vehicles,732,images/train1.png,neutral,0,-1,0,629.2,0,1,0,1
3857,learning,1,6,vehicles,734,images/plane2.png,good,4,4,1,635.3,4,1,1,1
3857,learning,1,6,vehicles,736,images/train3.png,neutral,0,[-1],0,599.4,0,4,0,1
3857,learning,1,6,vehicles,738,images/truck7.png,bad,-5,-5,0,649.5,0,6,0,1
3857,learning,1,6,vehicles,740,images/plane4.png,good,4,6,1,639.5,6,4,1,1
3857,learning,1,6,vehicles,742,images/plane4.png,good,4,5,1,456,5,5,1,1
3857,learning,1,6,vehicles,744,images/plane4.png,good,4,6,1,465.5,6,6,1,1
3857,learning,1,6,vehicles,746,images/plane3.png,good,4,5,1,619.8,5,6,1,1
3857,learning,1,6,vehicles,748,images/plane5.png,good,4,4,1,468.6,4,1,1,1
3857,learning,1,6,vehicles,750,images/truck6.png,bad,-5,-6,0,560.9,0,6,0,1
3857,learning,1,6,vehicles,752,images/train3.png,neutral,0,2,0,759.8,0,5,0,1
3857,learning,1,6,vehicles,754,images/plane7.png,good,4,3,1,683.1,3,3,1,1
3857,learning,1,6,vehicles,756,images/train4.png,neutral,0,[-1],1,437.5,-1,6,0,0
3857,learning,1,6,vehicles,758,images/train3.png,neutral,0,-1,0,579,0,6,0,1
3855,learning,2,1,vehicles,73,images/train7.png,neutral,0,-8,0,1211,0,1,0,1
3855,learning,2,1,vehicles,75,images/truck7.png,good,6,2,1,574,2,1,1,1
3855,learning,2,1,vehicles,77,images/train1.png,neutral,0,-3,1,620,-3,1,0,0
3855,learning,2,1,vehicles,79,images/truck7.png,good,6,2,1,478,2,2,1,1
3855,learning,2,1,vehicles,81,images/truck5.png,good,6,7,1,735,7,1,1,1
3855,learning,2,1,vehicles,83,images/plane1.png,bad,-3,-2,1,1344,-2,1,0,0
3855,learning,2,1,vehicles,85,images/plane6.png,bad,-3,6,1,783,6,1,1,1
3855,learning,2,1,vehicles,87,images/truck5.png,good,6,7,1,736,7,2,1,1
3855,learning,2,1,vehicles,89,images/train8.png,neutral,0,9,1,530,9,1,1,1
3855,learning,2,1,vehicles,91,images/train1.png,neutral,0,-3,0,642,0,2,0,1
3855,learning,2,1,vehicles,93,images/plane6.png,bad,-3,6,1,593,6,2,1,1
3855,learning,2,1,vehicles,95,images/plane2.png,bad,-3,-6,1,801,-6,1,0,0
3855,learning,2,1,vehicles,97,images/train7.png,neutral,0,-8,1,1090,-8,2,0,0
3855,learning,2,1,vehicles,99,images/truck4.png,good,6,4,0,883,0,1,1,0
3855,learning,2,1,vehicles,101,images/plane1.png,bad,-3,-2,1,882,-2,2,0,0
3855,learning,2,1,vehicles,103,images/train1.png,neutral,0,-3,1,627,-3,3,0,0
3855,learning,2,1,vehicles,105,images/plane6.png,bad,-3,6,1,723,6,3,1,1
3855,learning,2,1,vehicles,107,images/truck8.png,good,6,-5,1,805,-5,1,0,0
3855,learning,2,1,vehicles,109,images/train7.png,neutral,0,-8,0,468,0,3,0,1
3855,learning,2,1,vehicles,111,images/truck6.png,good,6,-9,1,932,-9,1,0,0
3855,learning,2,1,vehicles,113,images/plane1.png,bad,-3,-2,1,580,-2,3,0,0
3855,learning,2,1,vehicles,115,images/truck7.png,good,6,2,0,485,0,3,1,0
3855,learning,2,1,vehicles,117,images/train1.png,neutral,0,-3,0,904,0,4,0,1
3855,learning,2,1,vehicles,119,images/train1.png,neutral,0,-3,0,520,0,5,0,1
3855,learning,2,1,vehicles,121,images/train8.png,neutral,0,9,1,598,9,2,1,1
3855,learning,2,1,vehicles,123,images/train7.png,neutral,0,-8,1,615,-8,4,0,0
3855,learning,2,1,vehicles,125,images/truck5.png,good,6,7,1,664,7,3,1,1
3855,learning,2,1,vehicles,127,images/truck7.png,good,6,2,1,536,2,4,1,1
3855,learning,2,1,vehicles,129,images/plane6.png,bad,-3,6,0,970,0,4,1,0
3855,learning,2,1,vehicles,131,images/plane1.png,bad,-3,-2,0,2539,0,4,0,1
3855,learning,2,1,vehicles,133,images/truck5.png,good,6,7,1,714,7,4,1,1
3855,learning,2,1,vehicles,135,images/truck7.png,good,6,2,1,603,2,5,1,1
3855,learning,2,1,vehicles,137,images/plane1.png,bad,-3,-2,NA,NA,-5,5,0,NA
3855,learning,2,1,vehicles,139,images/truck7.png,good,6,2,1,861,2,6,1,1
3855,learning,2,1,vehicles,141,images/train7.png,neutral,0,-8,0,1405,0,5,0,1
3855,learning,2,1,vehicles,143,images/train4.png,neutral,0,5,1,1085,5,1,1,1
3855,learning,2,1,vehicles,145,images/plane6.png,bad,-3,6,1,1391,6,5,1,1
3855,learning,2,1,vehicles,147,images/plane1.png,bad,-3,-2,0,879,0,6,0,1
3855,learning,2,1,vehicles,149,images/train5.png,neutral,0,-1,1,960,-1,1,0,0
3855,learning,2,1,vehicles,151,images/truck5.png,good,6,7,1,656,7,5,1,1
3855,learning,2,1,vehicles,153,images/truck4.png,good,6,4,1,848,4,2,1,1
3855,learning,2,1,vehicles,155,images/plane6.png,bad,-3,6,0,784,0,6,1,0
3855,learning,2,1,vehicles,157,images/plane2.png,bad,-3,-6,0,1071,0,2,0,1
3855,learning,2,1,vehicles,159,images/truck5.png,good,6,7,1,497,7,6,1,1
3855,learning,2,1,vehicles,161,images/truck4.png,good,6,4,1,769,4,3,1,1
3855,learning,2,1,vehicles,163,images/train8.png,neutral,0,9,1,1138,9,3,1,1
3855,learning,2,1,vehicles,165,images/train1.png,neutral,0,-3,0,979,0,6,0,1
3855,learning,2,1,vehicles,167,images/plane5.png,bad,-3,3,1,1027,3,1,1,1
3855,learning,2,1,vehicles,169,images/plane2.png,bad,-3,-6,0,947,0,3,0,1
3855,learning,2,1,vehicles,171,images/plane4.png,bad,-3,-4,1,1138,-4,1,0,0
3855,learning,2,1,vehicles,173,images/train7.png,neutral,0,-8,1,1043,-8,6,0,0
3855,learning,1,2,plants,190,images/cactus1.png,neutral,0,1,0,1668,0,1,0,1
3855,learning,1,2,plants,192,images/tree5.png,bad,-4,-2,1,613,-2,1,0,0
3855,learning,1,2,plants,194,images/bush5.png,good,6,5,1,1239,5,1,1,1
3855,learning,1,2,plants,196,images/cactus8.png,neutral,0,2,1,776,2,1,0,0
3855,learning,1,2,plants,198,images/cactus7.png,neutral,0,[-1],1,743,-1,1,0,0
3855,learning,1,2,plants,200,images/tree3.png,bad,-4,-8,1,775,-8,1,0,0
3855,learning,1,2,plants,202,images/tree4.png,bad,-4,-2,0,745,0,1,0,1
3855,learning,1,2,plants,204,images/bush8.png,good,6,4,1,681,4,1,1,1
3855,learning,1,2,plants,206,images/tree4.png,bad,-4,-5,0,902,0,2,0,1
3855,learning,1,2,plants,208,images/bush6.png,good,6,9,1,726,9,1,1,1
3855,learning,1,2,plants,210,images/cactus1.png,neutral,0,[-1],1,1208,-1,2,0,0
3855,learning,1,2,plants,212,images/bush5.png,good,6,8,1,1063,8,2,1,1
3855,learning,1,2,plants,214,images/bush8.png,good,6,8,1,696,8,2,1,1
3855,learning,1,2,plants,216,images/tree5.png,bad,-4,-4,0,1352,0,2,0,1
3855,learning,1,2,plants,218,images/cactus7.png,neutral,0,1,1,1643,1,2,0,0
3855,learning,1,2,plants,220,images/tree4.png,bad,-4,-3,0,842,0,3,0,1
3855,learning,1,2,plants,222,images/bush5.png,good,6,6,1,636,6,3,1,1
3855,learning,1,2,plants,224,images/bush6.png,good,6,6,1,621,6,2,1,1
3855,learning,1,2,plants,226,images/tree3.png,bad,-4,-3,0,1022,0,2,0,1
3855,learning,1,2,plants,228,images/bush8.png,good,6,4,1,511,4,3,1,1
3855,learning,1,2,plants,230,images/bush8.png,good,6,7,1,434,7,4,1,1
3855,learning,1,2,plants,232,images/tree4.png,bad,-4,-5,0,740,0,4,0,1
3855,learning,1,2,plants,234,images/tree2.png,bad,-4,-5,1,998,-5,1,0,0
3855,learning,1,2,plants,236,images/cactus1.png,neutral,0,2,0,1014,0,3,0,1
3855,learning,1,2,plants,238,images/tree5.png,bad,-4,-7,0,919,0,3,0,1
3855,learning,1,2,plants,240,images/cactus7.png,neutral,0,1,1,760,1,3,0,0
3855,learning,1,2,plants,242,images/tree4.png,bad,-4,-6,0,728,0,5,0,1
3855,learning,1,2,plants,244,images/cactus7.png,neutral,0,-1,0,1194,0,4,0,1
3855,learning,1,2,plants,246,images/bush5.png,good,6,6,1,394,6,4,1,1
3855,learning,1,2,plants,248,images/cactus7.png,neutral,0,-2,0,796,0,5,0,1
3855,learning,1,2,plants,250,images/bush6.png,good,6,7,1,444,7,3,1,1
3855,learning,1,2,plants,252,images/cactus1.png,neutral,0,-1,0,845,0,4,0,1
3855,learning,1,2,plants,254,images/tree4.png,bad,-4,-5,0,815,0,6,0,1
3855,learning,1,2,plants,256,images/bush8.png,good,6,3,1,448,3,5,1,1
3855,learning,1,2,plants,258,images/bush5.png,good,6,5,1,545,5,5,1,1
3855,learning,1,2,plants,260,images/tree5.png,bad,-4,-7,0,707,0,4,0,1
3855,learning,1,2,plants,262,images/tree5.png,bad,-4,-2,0,531,0,5,0,1
3855,learning,1,2,plants,264,images/tree3.png,bad,-4,-3,0,547,0,3,0,1
3855,learning,1,2,plants,266,images/bush2.png,good,6,8,1,610,8,1,1,1
3855,learning,1,2,plants,268,images/cactus8.png,neutral,0,[1],1,804,1,2,0,0
3855,learning,1,2,plants,270,images/cactus7.png,neutral,0,[-1],0,630,0,6,0,1
3855,learning,1,2,plants,272,images/tree1.png,bad,-4,-3,0,903,0,1,0,1
3855,learning,1,2,plants,274,images/cactus5.png,neutral,0,-2,0,821,0,1,0,1
3855,learning,1,2,plants,276,images/bush4.png,good,6,1,1,520,1,1,1,1
3855,learning,1,2,plants,278,images/cactus1.png,neutral,0,-2,0,650,0,5,0,1
3855,learning,1,2,plants,280,images/cactus6.png,neutral,0,-1,0,712,0,1,0,1
3855,learning,1,2,plants,282,images/cactus1.png,neutral,0,1,0,522,0,6,0,1
3855,learning,1,2,plants,284,images/cactus8.png,neutral,0,-1,1,700,-1,3,0,0
3855,learning,1,2,plants,286,images/bush8.png,good,6,7,1,654,7,6,1,1
3855,learning,1,2,plants,288,images/bush5.png,good,6,7,1,543,7,6,1,1
3855,learning,1,2,plants,290,images/tree5.png,bad,-4,-5,0,800,0,6,0,1
3855,learning,1,3,fruit,307,images/straw8.png,bad,-6,-4,1,836,-4,1,0,0
3855,learning,1,3,fruit,309,images/orange4.png,good,6,7,1,726,7,1,1,1
3855,learning,1,3,fruit,311,images/orange2.png,good,6,5,1,854,5,1,1,1
3855,learning,1,3,fruit,313,images/orange4.png,good,6,7,1,520,7,2,1,1
3855,learning,1,3,fruit,315,images/straw8.png,bad,-6,-7,0,616,0,2,0,1
3855,learning,1,3,fruit,317,images/orange7.png,good,6,6,1,618,6,1,1,1
3855,learning,1,3,fruit,319,images/apple3.png,neutral,0,1,0,843,0,1,0,1
3855,learning,1,3,fruit,321,images/straw2.png,bad,-6,-6,0,843,0,1,0,1
3855,learning,1,3,fruit,323,images/apple2.png,neutral,0,-1,1,603,-1,1,0,0
3855,learning,1,3,fruit,325,images/orange7.png,good,6,6,1,1165,6,2,1,1
3855,learning,1,3,fruit,327,images/apple1.png,neutral,0,1,0,797,0,1,0,1
3855,learning,1,3,fruit,329,images/straw1.png,bad,-6,-6,0,957,0,1,0,1
3855,learning,1,3,fruit,331,images/apple2.png,neutral,0,[1],0,703,0,2,0,1
3855,learning,1,3,fruit,333,images/apple1.png,neutral,0,-2,0,1152,0,2,0,1
3855,learning,1,3,fruit,335,images/straw1.png,bad,-6,-6,0,480,0,2,0,1
3855,learning,1,3,fruit,337,images/orange4.png,good,6,6,1,559,6,3,1,1
3855,learning,1,3,fruit,339,images/orange7.png,good,6,5,1,368,5,3,1,1
3855,learning,1,3,fruit,341,images/straw6.png,bad,-6,-6,0,770,0,1,0,1
3855,learning,1,3,fruit,343,images/orange7.png,good,6,6,1,483,6,4,1,1
3855,learning,1,3,fruit,345,images/orange4.png,good,6,5,1,451,5,4,1,1
3855,learning,1,3,fruit,347,images/straw1.png,bad,-6,-4,0,612,0,3,0,1
3855,learning,1,3,fruit,349,images/orange7.png,good,6,4,1,693,4,5,1,1
3855,learning,1,3,fruit,351,images/straw8.png,bad,-6,-4,0,485,0,3,0,1
3855,learning,1,3,fruit,353,images/orange4.png,good,6,7,1,579,7,5,1,1
3855,learning,1,3,fruit,355,images/apple1.png,neutral,0,1,0,516,0,3,0,1
3855,learning,1,3,fruit,357,images/apple2.png,neutral,0,-1,1,692,-1,3,0,0
3855,learning,1,3,fruit,359,images/apple3.png,neutral,0,-2,0,837,0,2,0,1
3855,learning,1,3,fruit,361,images/apple2.png,neutral,0,-4,0,629,0,4,0,1
3855,learning,1,3,fruit,363,images/apple1.png,neutral,0,-1,0,487,0,4,0,1
3855,learning,1,3,fruit,365,images/straw7.png,bad,-6,-6,0,487,0,1,0,1
3855,learning,1,3,fruit,367,images/orange7.png,good,6,7,1,582,7,6,1,1
3855,learning,1,3,fruit,369,images/straw1.png,bad,-6,-6,0,552,0,4,0,1
3855,learning,1,3,fruit,371,images/straw2.png,bad,-6,-6,0,662,0,2,0,1
3855,learning,1,3,fruit,373,images/straw1.png,bad,-6,-7,0,533,0,5,0,1
3855,learning,1,3,fruit,375,images/orange2.png,good,6,8,1,566,8,2,1,1
3855,learning,1,3,fruit,377,images/apple2.png,neutral,0,-2,0,485,0,5,0,1
3855,learning,1,3,fruit,379,images/apple3.png,neutral,0,-2,0,694,0,3,0,1
3855,learning,1,3,fruit,381,images/orange4.png,good,6,6,1,631,6,6,1,1
3855,learning,1,3,fruit,383,images/apple1.png,neutral,0,[-1],0,502,0,5,0,1
3855,learning,1,3,fruit,385,images/straw1.png,bad,-6,-8,0,677,0,6,0,1
3855,learning,1,3,fruit,387,images/orange1.png,good,6,6,1,566,6,1,1,1
3855,learning,1,3,fruit,389,images/straw2.png,bad,-6,-6,0,566,0,3,0,1
3855,learning,1,3,fruit,391,images/apple1.png,neutral,0,[1],0,612,0,6,0,1
3855,learning,1,3,fruit,393,images/apple4.png,neutral,0,-2,1,517,-2,1,0,0
3855,learning,1,3,fruit,395,images/apple8.png,neutral,0,3,0,644,0,1,0,1
3855,learning,1,3,fruit,397,images/orange8.png,good,6,6,1,643,6,1,1,1
3855,learning,1,3,fruit,399,images/apple2.png,neutral,0,-1,0,708,0,6,0,1
3855,learning,1,3,fruit,401,images/orange2.png,good,6,5,1,596,5,3,1,1
3855,learning,1,3,fruit,403,images/straw8.png,bad,-6,-6,0,532,0,4,0,1
3855,learning,1,3,fruit,405,images/straw8.png,bad,-6,-8,0,835,0,5,0,1
3855,learning,1,3,fruit,407,images/straw8.png,bad,-6,-8,0,481,0,6,0,1
3855,learning,2,4,animals,424,images/sheep6.png,bad,-6,-5,NA,NA,-5,1,0,NA
3855,learning,2,4,animals,426,images/horse8.png,neutral,0,-3,1,964,-3,1,0,0
3855,learning,2,4,animals,428,images/sheep4.png,bad,-6,9,1,739,9,1,1,1
3855,learning,2,4,animals,430,images/goat1.png,good,3,-4,0,980,0,1,0,1
3855,learning,2,4,animals,432,images/horse1.png,neutral,0,3,0,853,0,1,1,0
3855,learning,2,4,animals,434,images/goat1.png,good,3,-4,0,966,0,2,0,1
3855,learning,2,4,animals,436,images/goat8.png,good,3,-7,0,1094,0,1,0,1
3855,learning,2,4,animals,438,images/horse1.png,neutral,0,3,0,693,0,2,1,0
3855,learning,2,4,animals,440,images/goat5.png,good,3,5,0,967,0,1,1,0
3855,learning,2,4,animals,442,images/horse6.png,neutral,0,-8,0,902,0,1,0,1
3855,learning,2,4,animals,444,images/sheep6.png,bad,-6,-5,1,469,-5,2,0,0
3855,learning,2,4,animals,446,images/sheep5.png,bad,-6,-2,1,677,-2,1,0,0
3855,learning,2,4,animals,448,images/sheep4.png,bad,-6,9,1,501,9,2,1,1
3855,learning,2,4,animals,450,images/goat8.png,good,3,-7,0,791,0,2,0,1
3855,learning,2,4,animals,452,images/horse6.png,neutral,0,-8,0,1176,0,2,0,1
3855,learning,2,4,animals,454,images/horse1.png,neutral,0,3,1,952,3,3,1,1
3855,learning,2,4,animals,456,images/horse1.png,neutral,0,3,1,634,3,4,1,1
3855,learning,2,4,animals,458,images/goat8.png,good,3,-7,0,779,0,3,0,1
3855,learning,2,4,animals,460,images/sheep4.png,bad,-6,9,1,795,9,3,1,1
3855,learning,2,4,animals,462,images/goat8.png,good,3,-7,0,1036,0,4,0,1
3855,learning,2,4,animals,464,images/horse4.png,neutral,0,2,0,813,0,1,1,0
3855,learning,2,4,animals,466,images/horse8.png,neutral,0,-3,1,974,-3,2,0,0
3855,learning,2,4,animals,468,images/sheep6.png,bad,-6,-5,1,720,-5,3,0,0
3855,learning,2,4,animals,470,images/goat5.png,good,3,5,1,960,5,2,1,1
3855,learning,2,4,animals,472,images/sheep6.png,bad,-6,-5,1,720,-5,4,0,0
3855,learning,2,4,animals,474,images/sheep5.png,bad,-6,-2,1,609,-2,2,0,0
3855,learning,2,4,animals,476,images/sheep4.png,bad,-6,9,1,626,9,4,1,1
3855,learning,2,4,animals,478,images/horse6.png,neutral,0,-8,0,963,0,3,0,1
3855,learning,2,4,animals,480,images/horse6.png,neutral,0,-8,0,723,0,4,0,1
3855,learning,2,4,animals,482,images/goat8.png,good,3,-7,0,692,0,5,0,1
3855,learning,2,4,animals,484,images/horse3.png,neutral,0,8,0,851,0,1,1,0
3855,learning,2,4,animals,486,images/goat3.png,good,3,-1,1,1253,-1,1,0,0
3855,learning,2,4,animals,488,images/sheep4.png,bad,-6,9,1,563,9,5,1,1
3855,learning,2,4,animals,490,images/horse1.png,neutral,0,3,1,900,3,5,1,1
3855,learning,2,4,animals,492,images/sheep6.png,bad,-6,-5,1,644,-5,5,0,0
3855,learning,2,4,animals,494,images/goat5.png,good,3,5,0,836,0,3,1,0
3855,learning,2,4,animals,496,images/horse8.png,neutral,0,-3,1,835,-3,3,0,0
3855,learning,2,4,animals,498,images/goat1.png,good,3,-4,1,1060,-4,3,0,0
3855,learning,2,4,animals,500,images/sheep6.png,bad,-6,-5,1,596,-5,6,0,0
3855,learning,2,4,animals,502,images/goat8.png,good,3,-7,0,548,0,6,0,1
3855,learning,2,4,animals,504,images/goat1.png,good,3,-4,0,676,0,4,0,1
3855,learning,2,4,animals,506,images/horse1.png,neutral,0,3,1,898,3,6,1,1
3855,learning,2,4,animals,508,images/goat1.png,good,3,-4,1,820,-4,5,0,0
3855,learning,2,4,animals,510,images/goat1.png,good,3,-4,0,580,0,6,0,1
3855,learning,2,4,animals,512,images/horse6.png,neutral,0,-8,0,675,0,5,0,1
3855,learning,2,4,animals,514,images/horse6.png,neutral,0,-8,0,626,0,6,0,1
3855,learning,2,4,animals,516,images/goat7.png,good,3,6,1,706,6,1,1,1
3855,learning,2,4,animals,518,images/sheep2.png,bad,-6,4,0,1026,0,1,1,0
3855,learning,2,4,animals,520,images/sheep3.png,bad,-6,-6,1,752,-6,1,0,0
3855,learning,2,4,animals,522,images/sheep5.png,bad,-6,-2,1,736,-2,3,0,0
3855,learning,2,4,animals,524,images/sheep4.png,bad,-6,9,1,606,9,6,1,1
3855,learning,2,5,pets,541,images/rodent8.png,good,5,9,1,1019,9,1,1,1
3855,learning,2,5,pets,543,images/dog6.png,bad,-3,3,1,747,3,1,1,1
3855,learning,2,5,pets,545,images/rodent2.png,good,5,-8,0,585,0,1,0,1
3855,learning,2,5,pets,547,images/dog1.png,bad,-3,-7,1,810,-7,1,0,0
3855,learning,2,5,pets,549,images/rabbit5.png,neutral,0,5,1,682,5,1,1,1
3855,learning,2,5,pets,551,images/rabbit7.png,neutral,0,-9,1,821,-9,1,0,0
3855,learning,2,5,pets,553,images/dog1.png,bad,-3,-7,0,789,0,2,0,1
3855,learning,2,5,pets,555,images/rabbit4.png,neutral,0,2,1,997,2,1,1,1
3855,learning,2,5,pets,557,images/rabbit4.png,neutral,0,2,1,818,2,2,1,1
3855,learning,2,5,pets,559,images/rodent2.png,good,5,-8,1,1078,-8,2,0,0
3855,learning,2,5,pets,561,images/dog6.png,bad,-3,3,1,679,3,2,1,1
3855,learning,2,5,pets,563,images/rabbit5.png,neutral,0,5,1,981,5,2,1,1
3855,learning,2,5,pets,565,images/rodent5.png,good,5,-3,1,692,-3,1,0,0
3855,learning,2,5,pets,567,images/dog7.png,bad,-3,1,1,870,1,1,1,1
3855,learning,2,5,pets,569,images/rodent8.png,good,5,9,1,707,9,2,1,1
3855,learning,2,5,pets,571,images/rodent2.png,good,5,-8,0,1122,0,3,0,1
3855,learning,2,5,pets,573,images/rodent2.png,good,5,-8,0,545,0,4,0,1
3855,learning,2,5,pets,575,images/dog6.png,bad,-3,3,1,736,3,3,1,1
3855,learning,2,5,pets,577,images/rodent2.png,good,5,-8,0,766,0,5,0,1
3855,learning,2,5,pets,579,images/rabbit5.png,neutral,0,5,1,733,5,3,1,1
3855,learning,2,5,pets,581,images/rabbit5.png,neutral,0,5,1,668,5,4,1,1
3855,learning,2,5,pets,583,images/rodent8.png,good,5,9,0,1118,0,3,1,0
3855,learning,2,5,pets,585,images/dog3.png,bad,-3,6,1,1182,6,1,1,1
3855,learning,2,5,pets,587,images/dog6.png,bad,-3,3,1,909,3,4,1,1
3855,learning,2,5,pets,589,images/rabbit4.png,neutral,0,2,1,1005,2,3,1,1
3855,learning,2,5,pets,591,images/dog1.png,bad,-3,-7,0,748,0,3,0,1
3855,learning,2,5,pets,593,images/rodent5.png,good,5,-3,1,1051,-3,2,0,0
3855,learning,2,5,pets,595,images/dog1.png,bad,-3,-7,0,827,0,4,0,1
3855,learning,2,5,pets,597,images/rodent8.png,good,5,9,1,1097,9,4,1,1
3855,learning,2,5,pets,599,images/rabbit5.png,neutral,0,5,1,664,5,5,1,1
3855,learning,2,5,pets,601,images/rabbit2.png,neutral,0,-5,1,713,-5,1,0,0
3855,learning,2,5,pets,603,images/rabbit6.png,neutral,0,7,1,712,7,1,1,1
3855,learning,2,5,pets,605,images/rabbit7.png,neutral,0,-9,0,903,0,2,0,1
3855,learning,2,5,pets,607,images/rodent3.png,good,5,4,1,1092,4,1,1,1
3855,learning,2,5,pets,609,images/dog1.png,bad,-3,-7,0,722,0,5,0,1
3855,learning,2,5,pets,611,images/dog7.png,bad,-3,1,1,752,1,2,1,1
3855,learning,2,5,pets,613,images/rabbit7.png,neutral,0,-9,0,992,0,3,0,1
3855,learning,2,5,pets,615,images/dog7.png,bad,-3,1,1,926,1,3,1,1
3855,learning,2,5,pets,617,images/rodent2.png,good,5,-8,0,1118,0,6,0,1
3855,learning,2,5,pets,619,images/rodent5.png,good,5,-3,1,1261,-3,3,0,0
3855,learning,2,5,pets,621,images/rabbit5.png,neutral,0,5,1,685,5,6,1,1
3855,learning,2,5,pets,623,images/dog1.png,bad,-3,-7,0,1195,0,6,0,1
3855,learning,2,5,pets,625,images/rodent7.png,good,5,-2,1,714,-2,1,0,0
3855,learning,2,5,pets,627,images/dog5.png,bad,-3,-4,1,696,-4,1,0,0
3855,learning,2,5,pets,629,images/rodent8.png,good,5,9,1,1256,9,5,1,1
3855,learning,2,5,pets,631,images/dog6.png,bad,-3,3,1,632,3,5,1,1
3855,learning,2,5,pets,633,images/dog6.png,bad,-3,3,1,488,3,6,1,1
3855,learning,2,5,pets,635,images/rodent8.png,good,5,9,0,983,0,6,1,0
3855,learning,2,5,pets,637,images/rabbit4.png,neutral,0,2,1,836,2,4,1,1
3855,learning,2,5,pets,639,images/rabbit4.png,neutral,0,2,1,593,2,5,1,1
3855,learning,2,5,pets,641,images/rabbit4.png,neutral,0,2,1,546,2,6,1,1
3855,learning,1,6,furniture,658,images/sofa2.png,good,3,3,0,1172,0,1,1,0
3855,learning,1,6,furniture,660,images/bed6.png,bad,-3,-4,1,740,-4,1,0,0
3855,learning,1,6,furniture,662,images/sofa2.png,good,3,3,1,901,3,2,1,1
3855,learning,1,6,furniture,664,images/bed6.png,bad,-3,2,0,773,0,2,0,1
3855,learning,1,6,furniture,666,images/bed7.png,bad,-3,-3,1,1012,-3,1,0,0
3855,learning,1,6,furniture,668,images/sofa1.png,good,3,5,1,947,5,1,1,1
3855,learning,1,6,furniture,670,images/sofa6.png,good,3,1,1,869,1,1,1,1
3855,learning,1,6,furniture,672,images/chair3.png,neutral,0,2,0,1123,0,1,0,1
3855,learning,1,6,furniture,674,images/chair3.png,neutral,0,-2,0,1091,0,2,0,1
3855,learning,1,6,furniture,676,images/chair4.png,neutral,0,-2,1,709,-2,1,0,0
3855,learning,1,6,furniture,678,images/chair1.png,neutral,0,-1,1,723,-1,1,0,0
3855,learning,1,6,furniture,680,images/bed2.png,bad,-3,-3,1,834,-3,1,0,0
3855,learning,1,6,furniture,682,images/sofa6.png,good,3,2,1,690,2,2,1,1
3855,learning,1,6,furniture,684,images/bed2.png,bad,-3,-4,0,1393,0,2,0,1
3855,learning,1,6,furniture,686,images/chair1.png,neutral,0,[-1],0,1008,0,2,0,1
3855,learning,1,6,furniture,688,images/bed7.png,bad,-3,-5,1,1007,-5,2,0,0
3855,learning,1,6,furniture,690,images/chair3.png,neutral,0,[1],1,973,1,3,0,0
3855,learning,1,6,furniture,692,images/bed5.png,bad,-3,-2,1,844,-2,1,0,0
3855,learning,1,6,furniture,694,images/sofa1.png,good,3,3,1,732,3,2,1,1
3855,learning,1,6,furniture,696,images/chair3.png,neutral,0,-1,0,779,0,4,0,1
3855,learning,1,6,furniture,698,images/sofa6.png,good,3,1,1,809,1,3,1,1
3855,learning,1,6,furniture,700,images/sofa2.png,good,3,1,0,825,0,3,1,0
3855,learning,1,6,furniture,702,images/chair4.png,neutral,0,-2,1,1112,-2,2,0,0
3855,learning,1,6,furniture,704,images/bed8.png,bad,-3,-1,1,1126,-1,1,0,0
3855,learning,1,6,furniture,706,images/chair1.png,neutral,0,-2,0,1303,0,3,0,1
3855,learning,1,6,furniture,708,images/sofa1.png,good,3,1,1,756,1,3,1,1
3855,learning,1,6,furniture,710,images/sofa6.png,good,3,3,1,737,3,4,1,1
3855,learning,1,6,furniture,712,images/bed6.png,bad,-3,-4,0,578,0,3,0,1
3855,learning,1,6,furniture,714,images/sofa5.png,good,3,1,0,851,0,1,1,0
3855,learning,1,6,furniture,716,images/chair6.png,neutral,0,2,0,769,0,1,0,1
3855,learning,1,6,furniture,718,images/sofa6.png,good,3,2,1,800,2,5,1,1
3855,learning,1,6,furniture,720,images/chair1.png,neutral,0,2,0,622,0,4,0,1
3855,learning,1,6,furniture,722,images/chair8.png,neutral,0,-1,0,655,0,1,0,1
3855,learning,1,6,furniture,724,images/bed2.png,bad,-3,-3,0,798,0,3,0,1
3855,learning,1,6,furniture,726,images/chair3.png,neutral,0,[1],0,797,0,5,0,1
3855,learning,1,6,furniture,728,images/chair1.png,neutral,0,[1],0,570,0,5,0,1
3855,learning,1,6,furniture,730,images/bed2.png,bad,-3,-3,0,1288,0,4,0,1
3855,learning,1,6,furniture,732,images/sofa2.png,good,3,2,0,919,0,4,1,0
3855,learning,1,6,furniture,734,images/chair1.png,neutral,0,-2,0,1830,0,6,0,1
3855,learning,1,6,furniture,736,images/chair4.png,neutral,0,2,0,1397,0,3,0,1
3855,learning,1,6,furniture,738,images/sofa2.png,good,3,1,0,1301,0,5,1,0
3855,learning,1,6,furniture,740,images/bed2.png,bad,-3,-5,0,674,0,5,0,1
3855,learning,1,6,furniture,742,images/sofa4.png,good,3,4,0,1378,0,1,1,0
3855,learning,1,6,furniture,744,images/bed6.png,bad,-3,-1,0,833,0,4,0,1
3855,learning,1,6,furniture,746,images/bed7.png,bad,-3,-2,0,1248,0,3,0,1
3855,learning,1,6,furniture,748,images/chair3.png,neutral,0,-2,NA,NA,-5,6,0,NA
3855,learning,1,6,furniture,750,images/bed2.png,bad,-3,-5,NA,NA,-5,6,0,NA
3855,learning,1,6,furniture,752,images/sofa6.png,good,3,2,NA,NA,-5,6,1,NA
3855,learning,1,6,furniture,754,images/sofa2.png,good,3,1,0,767,0,6,1,0
3855,learning,1,6,furniture,756,images/bed6.png,bad,-3,-7,0,1037,0,5,0,1
3855,learning,1,6,furniture,758,images/bed6.png,bad,-3,-3,NA,NA,-5,6,0,NA
3853,learning,1,1,vehicles,73,images/train7.png,good,4,2,1,1021.7,2,1,1,1
3853,learning,1,1,vehicles,75,images/boat3.png,bad,-5,-2,1,713.8999999,-2,1,0,0
3853,learning,1,1,vehicles,77,images/truck3.png,neutral,0,-1,2,1269.3,-5,1,0,0
3853,learning,1,1,vehicles,79,images/train2.png,good,4,5,1,925.7,5,1,1,1
3853,learning,1,1,vehicles,81,images/boat3.png,bad,-5,-5,0,1221.9,0,2,0,1
3853,learning,1,1,vehicles,83,images/truck7.png,neutral,0,2,1,1051.2,2,1,0,0
3853,learning,1,1,vehicles,85,images/train7.png,good,4,2,1,531.8,2,2,1,1
3853,learning,1,1,vehicles,87,images/train8.png,good,4,5,1,645.1000001,5,1,1,1
3853,learning,1,1,vehicles,89,images/train8.png,good,4,5,1,455.8000002,5,2,1,1
3853,learning,1,1,vehicles,91,images/boat1.png,bad,-5,-3,0,898.0999999,0,1,0,1
3853,learning,1,1,vehicles,93,images/boat6.png,bad,-5,-3,0,859.8,0,1,0,1
3853,learning,1,1,vehicles,95,images/truck8.png,neutral,0,2,1,937.2,2,1,0,0
3853,learning,1,1,vehicles,97,images/boat6.png,bad,-5,-6,0,770.40000010000006,0,2,0,1
3853,learning,1,1,vehicles,99,images/truck3.png,neutral,0,[1],1,720.2,1,2,0,0
3853,learning,1,1,vehicles,101,images/truck8.png,neutral,0,1,1,533.8,1,2,0,0
3853,learning,1,1,vehicles,103,images/truck4.png,neutral,0,-1,1,683.7,-1,1,0,0
3853,learning,1,1,vehicles,105,images/train7.png,good,4,3,1,784.8,3,3,1,1
3853,learning,1,1,vehicles,107,images/boat3.png,bad,-5,-5,0,829.5,0,3,0,1
3853,learning,1,1,vehicles,109,images/truck7.png,neutral,0,-2,1,756.5,-2,2,0,0
3853,learning,1,1,vehicles,111,images/boat6.png,bad,-5,-6,0,732,0,3,0,1
3853,learning,1,1,vehicles,113,images/truck3.png,neutral,0,[1],1,768.3,1,3,0,0
3853,learning,1,1,vehicles,115,images/train2.png,good,4,4,1,626.5,4,2,1,1
3853,learning,1,1,vehicles,117,images/truck8.png,neutral,0,[1],1,773.3,1,3,0,0
3853,learning,1,1,vehicles,119,images/truck8.png,neutral,0,-1,1,411.3,-1,4,0,0
3853,learning,1,1,vehicles,121,images/boat5.png,bad,-5,-4,0,683.8,0,1,0,1
3853,learning,1,1,vehicles,123,images/train8.png,good,4,3,1,580,3,3,1,1
3853,learning,1,1,vehicles,125,images/train7.png,good,4,3,1,540.3999999,3,4,1,1
3853,learning,1,1,vehicles,127,images/boat1.png,bad,-5,-3,0,676.5,0,2,0,1
3853,learning,1,1,vehicles,129,images/train8.png,good,4,3,1,560.40000010000006,3,4,1,1
3853,learning,1,1,vehicles,131,images/boat8.png,bad,-5,-6,0,693.0999999,0,1,0,1
3853,learning,1,1,vehicles,133,images/truck8.png,neutral,0,1,1,471,1,5,0,0
3853,learning,1,1,vehicles,135,images/truck7.png,neutral,0,1,1,722.0999999,1,3,0,0
3853,learning,1,1,vehicles,137,images/train3.png,good,4,3,1,818.6000001,3,1,1,1
3853,learning,1,1,vehicles,139,images/boat3.png,bad,-5,-4,0,687.5,0,4,0,1
3853,learning,1,1,vehicles,141,images/boat6.png,bad,-5,-5,0,661.3,0,4,0,1
3853,learning,1,1,vehicles,143,images/truck2.png,neutral,0,1,1,587.8000002,1,1,0,0
3853,learning,1,1,vehicles,145,images/boat3.png,bad,-5,-5,0,702.5,0,5,0,1
3853,learning,1,1,vehicles,147,images/truck3.png,neutral,0,2,1,564.1000001,2,4,0,0
3853,learning,1,1,vehicles,149,images/train8.png,good,4,5,1,504,5,5,1,1
3853,learning,1,1,vehicles,151,images/boat6.png,bad,-5,-5,0,628.6999998,0,5,0,1
3853,learning,1,1,vehicles,153,images/train7.png,good,4,4,1,586.8,4,5,1,1
3853,learning,1,1,vehicles,155,images/boat3.png,bad,-5,-7,0,663.90000010000006,0,6,0,1
3853,learning,1,1,vehicles,157,images/train2.png,good,4,4,1,612.3,4,3,1,1
3853,learning,1,1,vehicles,159,images/truck3.png,neutral,0,-2,1,532,-2,5,0,0
3853,learning,1,1,vehicles,161,images/train1.png,good,4,7,1,749.5999999,7,1,1,1
3853,learning,1,1,vehicles,163,images/truck8.png,neutral,0,1,1,554.8,1,6,0,0
3853,learning,1,1,vehicles,165,images/train8.png,good,4,7,1,513.40000010000006,7,6,1,1
3853,learning,1,1,vehicles,167,images/truck3.png,neutral,0,[1],1,601.1999998,1,6,0,0
3853,learning,1,1,vehicles,169,images/boat6.png,bad,-5,-6,0,774.6000001,0,6,0,1
3853,learning,1,1,vehicles,171,images/boat1.png,bad,-5,-7,0,515.90000010000006,0,3,0,1
3853,learning,1,1,vehicles,173,images/train7.png,good,4,3,1,609.1999998,3,6,1,1
3853,learning,2,2,pets,190,images/rodent1.png,neutral,0,-8,1,1197.8,-8,1,0,0
3853,learning,2,2,pets,192,images/rabbit8.png,bad,-4,-9,0,1254.5,0,1,0,1
3853,learning,2,2,pets,194,images/cat5.png,good,6,8,1,839,8,1,1,1
3853,learning,2,2,pets,196,images/cat2.png,good,6,-3,1,562.6000001,-3,1,0,0
3853,learning,2,2,pets,198,images/rabbit4.png,bad,-4,5,0,1016.2,0,1,1,0
3853,learning,2,2,pets,200,images/rabbit4.png,bad,-4,5,1,867.5,5,2,1,1
3853,learning,2,2,pets,202,images/rodent6.png,neutral,0,-4,0,1074.2,0,1,0,1
3853,learning,2,2,pets,204,images/rodent5.png,neutral,0,4,0,677.5999999,0,1,1,0
3853,learning,2,2,pets,206,images/rabbit8.png,bad,-4,-9,0,980.3999999,0,2,0,1
3853,learning,2,2,pets,208,images/rabbit6.png,bad,-4,7,1,786.1000001,7,1,1,1
3853,learning,2,2,pets,210,images/rodent1.png,neutral,0,-8,0,1004.9,0,2,0,1
3853,learning,2,2,pets,212,images/cat5.png,good,6,8,1,591.7,8,2,1,1
3853,learning,2,2,pets,214,images/cat2.png,good,6,-3,0,622.5999999,0,2,0,1
3853,learning,2,2,pets,216,images/rodent6.png,neutral,0,-4,0,1033,0,2,0,1
3853,learning,2,2,pets,218,images/cat6.png,good,6,-6,1,764.3000002,-6,1,0,0
3853,learning,2,2,pets,220,images/cat1.png,good,6,3,1,665.5999999,3,1,1,1
3853,learning,2,2,pets,222,images/rabbit8.png,bad,-4,-9,0,886.3999999,0,3,0,1
3853,learning,2,2,pets,224,images/rodent6.png,neutral,0,-4,0,742.3,0,3,0,1
3853,learning,2,2,pets,226,images/cat5.png,good,6,8,1,581.2,8,3,1,1
3853,learning,2,2,pets,228,images/rodent1.png,neutral,0,-8,0,937.0999999,0,3,0,1
3853,learning,2,2,pets,230,images/cat5.png,good,6,8,1,569,8,4,1,1
3853,learning,2,2,pets,232,images/rabbit8.png,bad,-4,-9,0,802.8,0,4,0,1
3853,learning,2,2,pets,234,images/rodent1.png,neutral,0,-8,0,697.40000010000006,0,4,0,1
3853,learning,2,2,pets,236,images/rabbit6.png,bad,-4,7,1,1182.6,7,2,1,1
3853,learning,2,2,pets,238,images/cat2.png,good,6,-3,0,861.0999999,0,3,0,1
3853,learning,2,2,pets,240,images/rodent6.png,neutral,0,-4,0,701.8,0,4,0,1
3853,learning,2,2,pets,242,images/rabbit4.png,bad,-4,5,1,764.2,5,3,1,1
3853,learning,2,2,pets,244,images/rabbit4.png,bad,-4,5,1,498.2,5,4,1,1
3853,learning,2,2,pets,246,images/cat2.png,good,6,-3,0,857.5999999,0,4,0,1
3853,learning,2,2,pets,248,images/rodent6.png,neutral,0,-4,0,726.5999999,0,5,0,1
3853,learning,2,2,pets,250,images/cat6.png,good,6,-6,1,1017.2,-6,2,0,0
3853,learning,2,2,pets,252,images/rabbit3.png,bad,-4,-5,1,838.6000001,-5,1,0,0
3853,learning,2,2,pets,254,images/cat5.png,good,6,8,1,543,8,5,1,1
3853,learning,2,2,pets,256,images/rabbit4.png,bad,-4,5,1,603.1000001,5,5,1,1
3853,learning,2,2,pets,258,images/rodent7.png,neutral,0,-2,0,940.5,0,1,0,1
3853,learning,2,2,pets,260,images/cat2.png,good,6,-3,0,825.40000010000006,0,5,0,1
3853,learning,2,2,pets,262,images/rodent1.png,neutral,0,-8,0,783.8000002,0,5,0,1
3853,learning,2,2,pets,264,images/cat7.png,good,6,1,1,956.7,1,1,1,1
3853,learning,2,2,pets,266,images/rodent3.png,neutral,0,9,0,813.7,0,1,1,0
3853,learning,2,2,pets,268,images/rodent6.png,neutral,0,-4,0,753.5,0,6,0,1
3853,learning,2,2,pets,270,images/cat2.png,good,6,-3,0,813,0,6,0,1
3853,learning,2,2,pets,272,images/rodent1.png,neutral,0,-8,0,668.7,0,6,0,1
3853,learning,2,2,pets,274,images/rabbit4.png,bad,-4,5,1,629,5,6,1,1
3853,learning,2,2,pets,276,images/cat5.png,good,6,8,1,553.7,8,6,1,1
3853,learning,2,2,pets,278,images/cat6.png,good,6,-6,0,874.5,0,3,0,1
3853,learning,2,2,pets,280,images/rabbit7.png,bad,-4,2,1,1106.6,2,1,1,1
3853,learning,2,2,pets,282,images/rodent5.png,neutral,0,4,1,1410.3,4,2,1,1
3853,learning,2,2,pets,284,images/rabbit8.png,bad,-4,-9,0,942.2,0,5,0,1
3853,learning,2,2,pets,286,images/rabbit8.png,bad,-4,-9,0,652.7,0,6,0,1
3853,learning,2,2,pets,288,images/rodent5.png,neutral,0,4,1,906.8,4,3,1,1
3853,learning,2,2,pets,290,images/rabbit6.png,bad,-4,7,1,679.7,7,3,1,1
3853,learning,2,3,furniture,307,images/bed3.png,neutral,0,-2,1,1617.3,-2,1,0,0
3853,learning,2,3,furniture,309,images/chair4.png,bad,-4,-9,1,1075.6,-9,1,0,0
3853,learning,2,3,furniture,311,images/bed6.png,neutral,0,-8,1,925,-8,1,0,0
3853,learning,2,3,furniture,313,images/table7.png,good,5,-7,1,657.7,-7,1,0,0
3853,learning,2,3,furniture,315,images/table8.png,good,5,-3,2,1383.5,-5,1,0,0
3853,learning,2,3,furniture,317,images/chair7.png,bad,-4,9,1,730.7,9,1,1,1
3853,learning,2,3,furniture,319,images/chair7.png,bad,-4,9,1,509.5999999,9,2,1,1
3853,learning,2,3,furniture,321,images/chair8.png,bad,-4,3,0,1169.8,0,1,1,0
3853,learning,2,3,furniture,323,images/bed6.png,neutral,0,-8,0,951.8999999,0,2,0,1
3853,learning,2,3,furniture,325,images/bed1.png,neutral,0,8,1,965.3,8,1,1,1
3853,learning,2,3,furniture,327,images/chair4.png,bad,-4,-9,0,1046.5,0,2,0,1
3853,learning,2,3,furniture,329,images/table4.png,good,5,-1,1,969.3999999,-1,1,0,0
3853,learning,2,3,furniture,331,images/table8.png,good,5,-3,0,988.7,0,2,0,1
3853,learning,2,3,furniture,333,images/table4.png,good,5,-1,0,845.5,0,2,0,1
3853,learning,2,3,furniture,335,images/bed3.png,neutral,0,-2,1,1102.1,-2,2,0,0
3853,learning,2,3,furniture,337,images/table4.png,good,5,-1,0,878.3,0,3,0,1
3853,learning,2,3,furniture,339,images/chair7.png,bad,-4,9,0,942.5,0,3,1,0
3853,learning,2,3,furniture,341,images/chair8.png,bad,-4,3,0,1363.5,0,2,1,0
3853,learning,2,3,furniture,343,images/bed3.png,neutral,0,-2,0,1094.2,0,3,0,1
3853,learning,2,3,furniture,345,images/bed6.png,neutral,0,-8,1,966.0999999,-8,3,0,0
3853,learning,2,3,furniture,347,images/table1.png,good,5,6,1,992.5999999,6,1,1,1
3853,learning,2,3,furniture,349,images/table4.png,good,5,-1,0,805.5,0,4,0,1
3853,learning,2,3,furniture,351,images/bed1.png,neutral,0,8,1,827.8999999,8,2,1,1
3853,learning,2,3,furniture,353,images/table7.png,good,5,-7,0,934.3,0,2,0,1
3853,learning,2,3,furniture,355,images/bed3.png,neutral,0,-2,0,1036.9,0,4,0,1
3853,learning,2,3,furniture,357,images/chair4.png,bad,-4,-9,0,948.1999998,0,3,0,1
3853,learning,2,3,furniture,359,images/chair7.png,bad,-4,9,1,997.5999999,9,4,1,1
3853,learning,2,3,furniture,361,images/table8.png,good,5,-3,0,920,0,3,0,1
3853,learning,2,3,furniture,363,images/chair7.png,bad,-4,9,1,839.40000010000006,9,5,1,1
3853,learning,2,3,furniture,365,images/chair3.png,bad,-4,2,1,1059.3,2,1,1,1
3853,learning,2,3,furniture,367,images/bed6.png,neutral,0,-8,1,739.0999999,-8,4,0,0
3853,learning,2,3,furniture,369,images/bed7.png,neutral,0,4,1,634,4,1,1,1
